"Time (s)","Acceleration x (m/s^2)","Acceleration y (m/s^2)","Acceleration z (m/s^2)"
7.982177000E-3,-1.473983765E0,1.875976562E0,8.997009277E0
2.610961900E-2,-1.512268066E0,1.890335083E0,9.437286377E0
7.610961900E-2,-1.457229614E0,2.356933594E0,1.081555176E1
1.261096190E-1,-5.910339355E-1,1.347152710E0,9.286544800E0
1.761096190E-1,-8.446655273E-1,1.952545166E0,1.060260010E1
2.261096190E-1,4.115600586E-1,1.028915405E0,1.031785583E1
2.761096190E-1,2.632141113E-2,8.398742676E-1,7.948959351E0
3.261096190E-1,2.392578125E-2,9.834442139E-1,1.089691162E1
3.761096190E-1,-5.216369629E-1,1.213165283E0,9.437286377E0
4.261096190E-1,-5.958099365E-1,9.762725830E-1,9.552154541E0
4.761096190E-1,1.914215088E-1,1.215560913E0,1.011685181E1
5.261096190E-1,-5.838470459E-1,1.722839355E0,9.430114746E0
5.761096190E-1,-6.891326904E-1,1.808975220E0,1.074137878E1
6.261096190E-1,-3.493499756E-1,1.452438354E0,9.937393188E0
6.761096190E-1,-3.302154541E-1,1.363906860E0,9.714859009E0
7.261096190E-1,-4.642028809E-1,1.505081177E0,8.930007935E0
7.761096190E-1,-3.397827148E-1,1.722839355E0,9.123840332E0
8.261096190E-1,1.076812744E-1,1.866409302E0,1.072462463E1
8.761096190E-1,-7.178497314E-1,1.966903687E0,8.513656616E0
9.261096190E-1,1.196289062E-2,2.100891113E0,1.102372742E1
9.761096190E-1,-2.608184814E-1,1.555328369E0,9.755538940E0
1.026109619E0,-8.087768555E-1,2.043472290E0,1.009532166E1
1.076109619E0,-5.096740723E-1,2.268402100E0,8.831909180E0
1.126109619E0,-3.158569336E-1,3.000595093E0,9.504287720E0
1.176109619E0,7.656860352E-2,2.110473633E0,1.045903015E1
1.226109619E0,-5.982055664E-1,2.593826294E0,1.074137878E1
1.276109619E0,-3.804626465E-1,2.072189331E0,1.045663452E1
1.326109619E0,-3.995971680E-1,2.493316650E0,9.552154541E0
1.376109619E0,4.067840576E-1,2.024322510E0,1.185404968E1
1.426109619E0,4.833526611E-1,1.454833984E0,1.121755981E1
1.476109619E0,1.316070557E-1,1.981262207E0,1.161476135E1
1.526109619E0,1.706085205E0,8.973083496E-1,1.050927734E1
1.576109619E0,-1.914978027E-2,4.665985107E-1,1.009532166E1
1.626109619E0,-1.890258789E-1,5.838470459E-1,8.702697754E0
1.676109619E0,5.072784424E-1,1.808975220E0,7.544570923E0
1.726109619E0,-4.809570312E-1,1.251449585E0,8.413162231E0
1.776109619E0,1.411743164E-1,1.964508057E0,8.618942261E0
1.826109619E0,2.225341797E-1,2.524429321E0,9.260223389E0
1.876109619E0,3.517456055E-1,2.557922363E0,9.686141968E0
1.926109619E0,-3.445739746E-1,2.366500854E0,1.043510437E1
1.976109619E0,-1.986083984E-1,2.395217896E0,1.090409851E1
2.026109619E0,-8.877410889E-1,2.665603638E0,8.987442017E0
2.076109619E0,5.694885254E-1,1.000198364E0,1.361515808E1
2.126109619E0,-8.279113770E-1,1.593612671E0,7.633102417E0
2.176109619E0,-1.387832642E0,1.464401245E0,9.265014648E0
2.226109619E0,4.067993164E-2,1.763504028E0,8.264816284E0
2.276109619E0,-8.949127197E-1,1.875976562E0,8.819946289E0
2.326109619E0,-7.177734375E-2,2.349746704E0,8.870193481E0
2.376109619E0,-2.895355225E-1,2.866607666E0,8.812759399E0
2.426109619E0,-4.791259766E-3,2.550750732E0,9.623931885E0
2.476109619E0,2.751770020E-1,2.285140991E0,1.200479126E1
2.526109619E0,-1.148529053E-1,2.005187988E0,1.230149841E1
2.576109619E0,1.304092407E0,2.330612183E0,9.186050415E0
2.626109619E0,5.647125244E-1,6.508483887E-1,1.185643005E1
2.676109619E0,3.111267090E-2,7.992095947E-1,9.631118774E0
2.726109619E0,1.938171387E-1,1.373474121E0,9.784255981E0
2.776109619E0,1.842498779E-1,2.304290771E0,7.460815430E0
2.826109619E0,-2.536315918E-1,1.928619385E0,8.614166260E0
2.876109619E0,4.067840576E-1,2.203796387E0,9.403793335E0
2.926109619E0,5.934143066E-1,2.536392212E0,9.497116089E0
2.976109619E0,2.153015137E-2,2.667999268E0,1.060260010E1
3.026109619E0,2.440643311E-1,2.347366333E0,1.158604431E1
3.076109619E0,-8.398742676E-1,2.701492310E0,1.110987854E1
3.126109619E0,-9.260253906E-1,1.531402588E0,1.196171570E1
3.176109619E0,-5.312042236E-1,5.240325928E-1,9.748352051E0
3.226109619E0,-7.177734375E-2,8.327026367E-1,1.052603149E1
3.276109619E0,-9.331970215E-1,1.122238159E0,8.102096558E0
3.326109619E0,-5.383911133E-1,2.076965332E0,6.295516968E0
3.376109619E0,-5.886383057E-1,1.885543823E0,8.772094727E0
3.426109619E0,5.743408203E-2,2.297103882E0,8.953948975E0
3.476109619E0,-3.995971680E-1,2.526824951E0,1.035374451E1
3.526109619E0,2.632141113E-2,1.732406616E0,1.191625977E1
3.576109619E0,-2.129669189E-1,1.737182617E0,1.308395386E1
3.626109619E0,1.689331055E0,1.040878296E0,1.007856750E1
3.676109619E0,1.148529053E-1,1.531372070E-1,1.135873413E1
3.726109619E0,4.594268799E-1,1.124633789E0,9.674179077E0
3.776109619E0,-6.340942383E-1,1.356735229E0,9.664611816E0
3.826109619E0,-4.307098389E-1,2.596206665E0,7.097106934E0
3.876109619E0,-9.427795410E-1,1.416549683E0,8.879760742E0
3.926109619E0,4.187469482E-1,1.990829468E0,8.662017822E0
3.976109619E0,-2.632141113E-2,1.411758423E0,1.007139587E1
4.026109619E0,7.968139648E-1,1.825729370E0,1.020300293E1
4.076109619E0,-4.019927979E-1,1.813766479E0,1.227040100E1
4.126109619E0,9.308013916E-1,1.596008301E0,1.198565674E1
4.176109619E0,-2.282745361E0,1.052856445E-1,1.290927124E1
4.226109619E0,-2.206176758E0,3.493499756E-1,9.018554688E0
4.276109619E0,-1.787445068E0,-1.842498779E-1,1.114576721E1
4.326109619E0,-9.786682129E-1,5.431671143E-1,8.590240479E0
4.376109619E0,-1.500305176E0,8.374938965E-1,8.159530640E0
4.426109619E0,-4.594268799E-1,1.610366821E0,7.444076538E0
4.476109619E0,-6.197357178E-1,2.141571045E0,9.387039185E0
4.526109619E0,-9.499511719E-1,2.043472290E0,1.123429871E1
4.576109619E0,-7.178497314E-1,2.139190674E0,1.129652405E1
4.626109619E0,-1.607971191E0,1.808975220E0,1.289013672E1
4.676109619E0,2.536315918E-1,1.387832642E0,1.059780884E1
4.726109619E0,-1.105484009E0,3.206329346E-1,1.268435669E1
4.776109619E0,-8.925170898E-1,-1.675415039E-2,8.968292236E0
4.826109619E0,-5.072784424E-1,3.110656738E-1,9.432510376E0
4.876109619E0,-1.055236816E0,1.146163940E0,8.013565063E0
4.926109619E0,-2.199005127E0,1.229904175E0,7.747955322E0
4.976109619E0,-1.117446899E0,1.074371338E0,9.726821899E0
5.026109619E0,5.024719238E-2,1.323226929E0,1.005943298E1
5.076109619E0,-6.245269775E-1,1.684539795E0,1.061216736E1
5.126109619E0,3.158569336E-1,1.517044067E0,1.076770020E1
5.176109619E0,-1.179656982E0,1.007385254E0,1.219143677E1
5.226109619E0,3.804626465E-1,9.236297607E-1,1.241635132E1
5.276109619E0,-1.758728027E0,1.000198364E0,7.735992432E0
5.326109619E0,-1.574478149E0,5.479583740E-1,9.458831787E0
5.376109619E0,-1.000198364E0,5.431671143E-1,9.176467896E0
5.426109619E0,-1.105484009E0,1.282546997E0,7.599609375E0
5.476109619E0,-1.153335571E0,1.442871094E0,7.913070679E0
5.526109619E0,-4.450683594E-1,1.481155396E0,8.018356323E0
5.576109619E0,-5.168457031E-1,1.557723999E0,1.099023438E1
5.626109619E0,5.766754150E-1,1.653442383E0,1.212203979E1
5.676109619E0,4.953155518E-1,1.505081177E0,1.284706116E1
5.726109619E0,1.177261353E0,1.737182617E0,1.136830139E1
5.776109619E0,7.322082520E-1,3.182525635E-1,1.249291992E1
5.826109619E0,2.871398926E-1,7.800598145E-1,9.233901978E0
5.876109619E0,1.770629883E-1,1.028915405E0,8.571090698E0
5.926109619E0,3.014984131E-1,1.859222412E0,6.513259888E0
5.976109619E0,-1.012161255E0,2.026718140E0,7.405792236E0
6.026109619E0,-2.560272217E-1,1.732406616E0,8.717056274E0
6.076109619E0,-1.914978027E-2,1.775466919E0,1.169372559E1
6.126109619E0,-1.316070557E-1,1.954940796E0,1.232064819E1
6.176109619E0,3.134613037E-1,2.414352417E0,1.189233398E1
6.226109619E0,-1.914215088E-1,2.646469116E0,1.054277039E1
6.276109619E0,-2.392578125E-2,1.507476807E0,1.225842285E1
6.326109619E0,-5.934143066E-1,2.943115234E-1,9.918243408E0
6.376109619E0,3.900299072E-1,3.278198242E-1,1.088255310E1
6.426109619E0,-6.173553467E-1,1.136596680E0,7.362716675E0
6.476109619E0,-5.958099365E-1,1.818542480E0,6.252441406E0
6.526109619E0,2.321014404E-1,2.388031006E0,7.714462280E0
6.576109619E0,2.010040283E-1,2.938385010E0,9.932601929E0
6.626109619E0,-1.244201660E-1,2.067398071E0,1.152383423E1
6.676109619E0,-1.220397949E-1,1.777862549E0,1.173440552E1
6.726109619E0,-2.057800293E-1,1.794616699E0,1.227996826E1
6.776109619E0,1.253845215E0,1.500305176E0,1.093519592E1
6.826109619E0,-1.225128174E0,2.775726318E-1,1.117448425E1
6.876109619E0,9.188385010E-1,8.997039795E-1,9.805786133E0
6.926109619E0,7.177734375E-2,1.646255493E0,8.310272217E0
6.976109619E0,-3.756713867E-1,2.665603638E0,6.597015381E0
7.026109619E0,-8.661956787E-1,2.337783813E0,8.133209229E0
7.076109619E0,-3.517456055E-1,2.615356445E0,9.332015991E0
7.126109619E0,-3.995971680E-1,2.548355103E0,1.229432678E1
7.176109619E0,-4.881286621E-1,1.765899658E0,1.291645813E1
7.226109619E0,6.388854980E-1,2.297103882E0,9.884750366E0
7.276109619E0,-4.713897705E-1,6.580200195E-1,1.355294800E1
7.326109619E0,7.896423340E-2,1.014556885E0,8.276779175E0
7.376109619E0,-9.619140625E-1,8.661956787E-1,1.083230591E1
7.426109619E0,-6.556396484E-1,1.473983765E0,7.424926758E0
7.476109619E0,-1.366302490E0,2.048263550E0,7.948959351E0
7.526109619E0,-1.095916748E0,1.952545166E0,7.762313843E0
7.576109619E0,-4.737854004E-1,2.696716309E0,1.033459473E1
7.626109619E0,-5.264282227E-1,1.993225098E0,1.146640015E1
7.676109619E0,1.196441650E-1,2.067398071E0,1.195693970E1
7.726109619E0,-2.440643311E-1,1.942977905E0,1.108355713E1
7.776109619E0,6.699829102E-1,2.117645264E0,1.203590393E1
7.826109619E0,-6.532440186E-1,4.833526611E-1,9.875183105E0
7.876109619E0,5.192413330E-1,1.485946655E0,8.494522095E0
7.926109619E0,-2.847442627E-1,1.701293945E0,7.891525269E0
7.976109619E0,1.627044678E-1,2.287536621E0,6.056228638E0
8.026109619E0,-9.475555420E-1,2.124832153E0,7.963317871E0
8.076109619E0,7.441711426E-1,2.754135132E0,9.619140625E0
8.126109619E0,-3.708801270E-1,2.557922363E0,1.132522583E1
8.176109619E0,6.101684570E-1,2.407180786E0,1.239002991E1
8.226109619E0,2.153015137E-2,2.830703735E0,1.217228699E1
8.276109619E0,-4.905242920E-1,1.208374023E0,1.301934814E1
8.326109619E0,-7.346038818E-1,1.409378052E0,8.518447876E0
8.376109619E0,-5.216369629E-1,1.002593994E0,1.069352722E1
8.426109619E0,-9.567260742E-3,1.706085205E0,7.046859741E0
8.476109619E0,-3.732757568E-1,1.794616699E0,6.867401123E0
8.526109619E0,-1.866455078E-1,1.935791016E0,8.705093384E0
8.576109619E0,4.331054688E-1,2.723037720E0,9.224334717E0
8.626109619E0,-1.191619873E0,1.641479492E0,1.074856567E1
8.676109619E0,6.101684570E-1,1.926223755E0,1.088734436E1
8.726109619E0,-7.728881836E-1,1.820938110E0,1.243070984E1
8.776109619E0,-1.794586182E-1,1.086334229E0,1.314376831E1
8.826109619E0,-6.149597168E-1,-9.092712402E-2,1.225604248E1
8.876109619E0,1.299301147E0,1.071990967E0,8.233703613E0
8.926109619E0,-8.853149414E-2,1.371093750E0,9.633499146E0
8.976109619E0,-7.177734375E-2,2.134399414E0,5.862411499E0
9.026109619E0,-1.579269409E0,1.808975220E0,7.960922241E0
9.076109619E0,-2.368927002E-1,2.048263550E0,8.781661987E0
9.126109619E0,-5.216369629E-1,1.725219727E0,1.235174561E1
9.176109619E0,5.407714844E-1,1.950149536E0,1.177029419E1
9.226109619E0,-1.648651123E0,2.005187988E0,1.105244446E1
9.276109619E0,-2.512512207E-1,1.244262695E0,1.327059937E1
9.326109619E0,-1.296905518E0,5.862426758E-1,9.291336060E0
9.376109619E0,-2.560272217E-1,9.140625000E-1,1.049252319E1
9.426109619E0,-2.871704102E-2,1.095916748E0,7.599609375E0
9.476109619E0,-6.508483887E-1,1.574478149E0,7.264602661E0
9.526109619E0,-8.638153076E-1,1.560119629E0,7.556533813E0
9.576109619E0,-5.001068115E-1,2.356933594E0,9.430114746E0
9.626109619E0,-1.258621216E0,1.734802246E0,1.101416016E1
9.676109619E0,-1.268157959E-1,2.182250977E0,1.168893433E1
9.726109619E0,-1.359130859E0,1.914260864E0,1.285185242E1
9.776109619E0,1.627120972E0,1.773086548E0,1.149034119E1
9.826109619E0,-1.007385254E0,-5.168457031E-1,1.068634033E1
9.876109619E0,1.086334229E0,7.202453613E-1,9.001800537E0
9.926109619E0,7.656860352E-2,1.189239502E0,7.994415283E0
9.976109619E0,7.896423340E-2,2.045867920E0,6.185440063E0
1.002610962E1,-1.428512573E0,1.914260864E0,8.532806396E0
1.007610962E1,-2.416687012E-1,2.404785156E0,8.989837646E0
1.012610962E1,-3.086700439E-1,2.514862061E0,1.102851868E1
1.017610962E1,6.006011963E-1,2.325820923E0,1.257667542E1
1.022610962E1,1.363983154E-1,3.170486450E0,1.200718689E1
1.027610962E1,2.153472900E-1,1.607971191E0,1.272981262E1
1.032610962E1,-4.307098389E-1,1.373474121E0,1.107398987E1
1.037610962E1,-4.355010986E-1,7.728881836E-1,1.010968018E1
1.042610962E1,-3.661041260E-1,7.274169922E-1,8.611770630E0
1.047610962E1,-2.512512207E-1,1.672576904E0,6.898513794E0
1.052610962E1,-8.638153076E-1,1.990829468E0,7.255035400E0
1.057610962E1,-1.459655762E-1,2.725418091E0,8.429916382E0
1.062610962E1,-1.899902344E0,2.024322510E0,1.072941589E1
1.067610962E1,2.297058105E-1,2.026718140E0,1.146401978E1
1.072610962E1,-1.311264038E0,1.730010986E0,1.265324402E1
1.077610962E1,8.327026367E-1,1.263412476E0,1.124626160E1
1.082610962E1,-4.426727295E-1,5.407714844E-1,1.127258301E1
1.087610962E1,4.211425781E-1,1.423736572E0,8.250457764E0
1.092610962E1,9.809875488E-2,1.639083862E0,7.932205200E0
1.097610962E1,-9.308013916E-1,2.108078003E0,6.467803955E0
1.102610962E1,-1.416549683E0,2.153533936E0,7.841278076E0
1.107610962E1,-5.742797852E-1,2.299499512E0,1.031785583E1
1.112610962E1,-6.986999512E-1,2.768493652E0,1.159083557E1
1.117610962E1,-2.967071533E-1,2.285140991E0,1.188514709E1
1.122610962E1,5.503845215E-2,2.667999268E0,1.182054138E1
1.127610962E1,1.866455078E-1,8.207397461E-1,1.336869812E1
1.132610962E1,-1.351943970E0,8.494567871E-1,7.702499390E0
1.137610962E1,-9.858398438E-1,1.129409790E0,9.822540283E0
1.142610962E1,-1.340026855E-1,1.495513916E0,7.975280762E0
1.147610962E1,-4.307556152E-2,1.770690918E0,7.070785522E0
1.152610962E1,-5.024871826E-1,2.115249634E0,8.231307983E0
1.157610962E1,-3.852386475E-1,3.005386353E0,9.427719116E0
1.162610962E1,-7.561340332E-1,2.440673828E0,1.124626160E1
1.167610962E1,7.680969238E-1,2.249252319E0,1.098783875E1
1.172610962E1,-5.862426758E-1,2.117645264E0,1.135873413E1
1.177610962E1,4.905242920E-1,9.140625000E-1,1.378984070E1
1.182610962E1,-6.245269775E-1,9.379882812E-1,1.036331177E1
1.187610962E1,1.435699463E-1,1.423736572E0,1.035853577E1
1.192610962E1,-2.895355225E-1,2.282745361E0,6.396011353E0
1.197610962E1,-9.379882812E-1,2.572280884E0,6.082550049E0
1.202610962E1,-1.004989624E0,2.232498169E0,8.013565063E0
1.207610962E1,4.355010986E-1,3.017349243E0,8.925231934E0
1.212610962E1,-2.368927002E-1,2.732604980E0,1.081555176E1
1.217610962E1,6.340942383E-1,2.842666626E0,1.140898132E1
1.222610962E1,-6.388854980E-1,3.223129272E0,1.149272156E1
1.227610962E1,-3.230285645E-1,1.464401245E0,1.362712097E1
1.232610962E1,-1.284942627E0,4.019927979E-1,1.024366760E1
1.237610962E1,-6.460571289E-2,8.973083496E-1,9.528213501E0
1.242610962E1,-2.727813721E-1,1.186843872E0,7.630706787E0
1.247610962E1,-6.867370605E-1,1.935791016E0,6.728622437E0
1.252610962E1,-4.689941406E-1,2.045867920E0,8.240875244E0
1.257610962E1,7.369842529E-1,2.708679199E0,9.466003418E0
1.262610962E1,-5.312042236E-1,1.591232300E0,1.157647705E1
1.267610962E1,9.786682129E-1,1.986038208E0,1.057627869E1
1.272610962E1,-1.483612061E-1,1.753936768E0,1.249531555E1
1.277610962E1,1.399795532E0,1.397415161E0,1.140898132E1
1.282610962E1,-5.718841553E-1,-3.684997559E-1,1.191146851E1
1.287610962E1,-1.818542480E-1,6.723785400E-1,9.406188965E0
1.292610962E1,5.264282227E-2,1.864013672E0,8.126022339E0
1.297610962E1,-6.269226074E-1,2.120040894E0,6.082550049E0
1.302610962E1,-8.494567871E-1,2.055435181E0,7.791030884E0
1.307610962E1,4.522399902E-1,2.249252319E0,9.446868896E0
1.312610962E1,-2.368927002E-1,2.055435181E0,1.188993835E1
1.317610962E1,7.441711426E-1,1.856826782E0,1.242114258E1
1.322610962E1,1.105484009E0,2.373687744E0,1.232304382E1
1.327610962E1,1.500305176E0,1.146163940E0,1.236370850E1
1.332610962E1,-6.986999512E-1,6.867370605E-1,8.312667847E0
1.337610962E1,-8.135528564E-1,4.211425781E-1,9.872787476E0
1.342610962E1,-3.110656738E-1,1.158126831E0,7.513458252E0
1.347610962E1,-5.335998535E-1,1.622329712E0,6.766906738E0
1.352610962E1,-5.862426758E-1,2.356933594E0,7.585250854E0
1.357610962E1,-2.679901123E-1,2.572280884E0,8.805587769E0
1.362610962E1,-6.771697998E-1,2.170288086E0,1.082273865E1
1.367610962E1,8.470611572E-1,1.804183960E0,1.168415833E1
1.372610962E1,2.297058105E-1,1.854431152E0,1.244267273E1
1.377610962E1,2.153533936E0,1.454833984E0,1.284706116E1
1.382610962E1,4.139556885E-1,-9.809875488E-2,1.421336365E1
1.387610962E1,1.667800903E0,4.498443604E-1,9.714859009E0
1.392610962E1,1.134201050E0,9.260253906E-1,8.678771973E0
1.397610962E1,3.421783447E-1,1.842468262E0,5.553741455E0
1.402610962E1,-5.934143066E-1,1.801788330E0,7.546966553E0
1.407610962E1,2.703857422E-1,1.938186646E0,8.652450562E0
1.412610962E1,-5.575256348E-1,1.993225098E0,1.044946289E1
1.417610962E1,-5.670928955E-1,1.854431152E0,1.225364685E1
1.422610962E1,5.575256348E-1,1.911865234E0,1.276092529E1
1.427610962E1,-3.684997559E-1,2.538787842E0,1.086102295E1
1.432610962E1,7.872314453E-1,5.072784424E-1,1.255274963E1
1.437610962E1,-3.565368652E-1,4.067993164E-2,9.075973511E0
1.442610962E1,3.230285645E-1,-8.853149414E-2,9.975677490E0
1.447610962E1,1.172485352E-1,6.723785400E-1,7.247863770E0
1.452610962E1,1.531372070E-1,1.744369507E0,6.238082886E0
1.457610962E1,-3.924255371E-1,2.091323853E0,7.999206543E0
1.462610962E1,-4.522399902E-1,2.426315308E0,1.021734619E1
1.467610962E1,-9.571838379E-2,1.722839355E0,1.213879395E1
1.472610962E1,1.268157959E-1,1.069595337E0,1.218904114E1
1.477610962E1,-6.173553467E-1,1.794616699E0,1.066001892E1
1.482610962E1,1.476364136E0,2.416687012E-1,1.485464478E1
1.487610962E1,-3.182525635E-1,-3.397827148E-1,1.258624268E1
1.492610962E1,1.677368164E0,1.627044678E-1,9.879959106E0
1.497610962E1,1.433303833E0,8.542327881E-1,7.561325073E0
1.502610962E1,1.244201660E-1,1.313659668E0,6.417556763E0
1.507610962E1,2.608184814E-1,1.526626587E0,7.846069336E0
1.512610962E1,1.172485352E-1,1.921432495E0,9.688537598E0
1.517610962E1,-2.608184814E-1,2.447860718E0,1.080358887E1
1.522610962E1,-5.981445312E-2,2.232498169E0,1.154536438E1
1.527610962E1,-3.110656738E-1,1.670196533E0,1.351705933E1
1.532610962E1,-3.541412354E-1,2.167892456E0,1.025085449E1
1.537610962E1,-2.919311523E-1,4.019927979E-1,1.220100403E1
1.542610962E1,3.038940430E-1,-3.421783447E-1,1.116491699E1
1.547610962E1,2.033843994E-1,2.488555908E-1,9.044876099E0
1.552610962E1,1.435852051E-2,1.464401245E0,5.824127197E0
1.557610962E1,-4.498443604E-1,1.765899658E0,7.013366699E0
1.562610962E1,6.221008301E-2,2.531600952E0,8.652450562E0
1.567610962E1,-8.183441162E-1,2.802001953E0,1.037767029E1
1.572610962E1,-3.780670166E-1,2.464614868E0,1.030827332E1
1.577610962E1,-2.416687012E-1,1.828109741E0,1.212683105E1
1.582610962E1,2.153015137E-2,1.679763794E0,1.057627869E1
1.587610962E1,-4.594268799E-1,-3.828430176E-2,1.554138184E1
1.592610962E1,1.387786865E-1,3.206329346E-1,1.171525574E1
1.597610962E1,1.986038208E0,1.141372681E0,8.044662476E0
1.602610962E1,1.024124146E0,1.598403931E0,7.269393921E0
1.607610962E1,-6.077728271E-1,1.263412476E0,7.932205200E0
1.612610962E1,4.259185791E-1,2.160720825E0,7.408172607E0
1.617610962E1,2.392578125E-2,2.189437866E0,8.561523438E0
1.622610962E1,3.206329346E-1,1.799407959E0,1.093280029E1
1.627610962E1,-2.153015137E-2,2.033905029E0,1.205743408E1
1.632610962E1,2.249298096E-1,2.266006470E0,1.245225525E1
1.637610962E1,-4.307556152E-2,2.622528076E0,1.047816467E1
1.642610962E1,-6.915283203E-1,1.119842529E0,1.223689270E1
1.647610962E1,-2.273254395E-1,5.120697021E-1,7.956130981E0
1.652610962E1,-5.192413330E-1,1.770629883E-1,8.551940918E0
1.657610962E1,-7.680969238E-1,9.954071045E-1,7.869995117E0
1.662610962E1,-5.192413330E-1,1.155731201E0,8.702697754E0
1.667610962E1,3.828430176E-2,1.804183960E0,9.221939087E0
1.672610962E1,-1.004943848E-1,2.426315308E0,8.860626221E0
1.677610962E1,3.852386475E-1,2.306686401E0,1.051167297E1
1.682610962E1,5.288085938E-1,1.306488037E0,1.247138977E1
1.687610962E1,-5.575256348E-1,1.469192505E0,1.256950378E1
1.692610962E1,1.227523804E0,7.872314453E-1,1.517050171E1
1.697610962E1,-3.637084961E-1,-3.613128662E-1,1.229193115E1
1.702610962E1,1.777862549E0,3.206329346E-1,8.279159546E0
1.707610962E1,8.350982666E-1,8.063812256E-1,8.111663818E0
1.712610962E1,-1.938171387E-1,1.371093750E0,5.881561279E0
1.717610962E1,-6.699829102E-1,1.646255493E0,7.664215088E0
1.722610962E1,5.072784424E-1,2.115249634E0,9.387039185E0
1.727610962E1,-6.460571289E-2,2.124832153E0,1.084426880E1
1.732610962E1,-2.560272217E-1,2.266006470E0,1.137309265E1
1.737610962E1,3.613128662E-1,1.622329712E0,1.231106567E1
1.742610962E1,1.818542480E-1,1.928619385E0,1.056671143E1
1.747610962E1,-1.093521118E0,1.172485352E-1,1.268675232E1
1.752610962E1,-9.092712402E-2,3.995971680E-1,9.272186279E0
1.757610962E1,-1.555328369E-1,4.331054688E-1,9.944564819E0
1.762610962E1,-1.459655762E-1,1.351943970E0,7.724029541E0
1.767610962E1,-2.129669189E-1,1.713256836E0,6.771682739E0
1.772610962E1,5.407714844E-1,2.555541992E0,8.116455078E0
1.777610962E1,1.268157959E-1,2.589035034E0,9.382263184E0
1.782610962E1,-6.293182373E-1,1.844863892E0,1.156929016E1
1.787610962E1,8.159484863E-1,1.426116943E0,1.219381714E1
1.792610962E1,-2.201385498E-1,1.500305176E0,1.227517700E1
1.797610962E1,3.462417603E0,1.533798218E0,1.133718872E1
1.802610962E1,4.791259766E-3,-2.225341797E-1,1.340458679E1
1.807610962E1,4.187469482E-1,8.135528564E-1,8.640487671E0
1.812610962E1,1.722869873E-1,1.356735229E0,8.477767944E0
1.817610962E1,3.206329346E-1,2.215759277E0,5.953338623E0
1.822610962E1,-8.279113770E-1,1.837692261E0,8.355743408E0
1.827610962E1,2.057800293E-1,2.155929565E0,9.494720459E0
1.832610962E1,-3.397827148E-1,2.404785156E0,1.055474854E1
1.837610962E1,-2.033843994E-1,2.153533936E0,1.115295410E1
1.842610962E1,3.708801270E-1,2.127212524E0,1.172004700E1
1.847610962E1,-1.229904175E0,2.636886597E0,9.628723145E0
1.852610962E1,-3.588867188E-2,1.107879639E0,1.255035400E1
1.857610962E1,-3.876342773E-1,3.852386475E-1,1.004507446E1
1.862610962E1,-9.567260742E-3,7.082824707E-1,1.057148743E1
1.867610962E1,6.053771973E-1,2.012359619E0,7.795822144E0
1.872610962E1,-2.560272217E-1,2.017150879E0,8.157135010E0
1.877610962E1,5.383911133E-1,2.021942139E0,9.095123291E0
1.882610962E1,3.206329346E-1,2.249252319E0,8.898910522E0
1.887610962E1,1.100769043E-1,1.600799561E0,1.010728455E1
1.892610962E1,1.253845215E0,9.523468018E-1,1.161715698E1
1.897610962E1,-1.363983154E-1,1.404586792E0,1.076530457E1
1.902610962E1,1.292129517E0,1.428512573E0,9.990036011E0
1.907610962E1,1.435699463E-1,3.756713867E-1,1.301934814E1
1.912610962E1,6.125640869E-1,6.006011963E-1,9.726821899E0
1.917610962E1,5.312042236E-1,6.867370605E-1,8.903686523E0
1.922610962E1,1.701293945E0,1.617553711E0,7.676177979E0
1.927610962E1,2.368927002E-1,1.677368164E0,9.394226074E0
1.932610962E1,2.703857422E-1,2.184646606E0,9.444473267E0
1.937610962E1,-2.632141113E-2,2.258819580E0,1.067199707E1
1.942610962E1,7.489471436E-1,2.452636719E0,1.023889160E1
1.947610962E1,-2.895355225E-1,1.701293945E0,1.189471436E1
1.952610962E1,-4.737854004E-1,1.529006958E0,1.060499573E1
1.957610962E1,-1.651000977E-1,1.426116943E0,9.523437500E0
1.962610962E1,7.274169922E-1,4.211425781E-1,1.335194397E1
1.967610962E1,4.235229492E-1,6.388854980E-1,9.018554688E0
1.972610962E1,1.435852051E-2,6.436767578E-1,9.477966309E0
1.977610962E1,8.135986328E-2,1.040878296E0,9.183654785E0
1.982610962E1,-2.464599609E-1,1.284942627E0,9.018554688E0
1.987610962E1,5.455627441E-1,2.069793701E0,9.312866211E0
1.992610962E1,-2.488555908E-1,2.031509399E0,9.501892090E0
1.997610962E1,-1.124572754E-1,1.768295288E0,9.461227417E0
2.002610962E1,2.608184814E-1,1.098312378E0,1.108116150E1
2.007610962E1,2.392578125E-2,1.227523804E0,1.066001892E1
2.012610962E1,3.541412354E-1,1.691726685E0,8.776870728E0
2.017610962E1,6.676025391E-1,3.397827148E-1,1.346441650E1
2.022610962E1,2.273254395E-1,7.968139648E-1,1.075094604E1
2.027610962E1,2.536315918E-1,6.221313477E-1,1.023889160E1
2.032610962E1,1.091125488E0,1.500305176E0,7.164108276E0
2.037610962E1,1.220397949E-1,1.272979736E0,7.513458252E0
2.042610962E1,3.708801270E-1,1.765899658E0,9.229110718E0
2.047610962E1,-2.273254395E-1,1.856826782E0,9.808181763E0
2.052610962E1,4.570312500E-1,1.935791016E0,1.111944580E1
2.057610962E1,2.440643311E-1,2.041076660E0,1.109072876E1
2.062610962E1,-2.057800293E-1,1.887939453E0,1.137309265E1
2.067610962E1,2.105712891E-1,2.376068115E0,9.867996216E0
2.072610962E1,7.417297363E-2,6.221313477E-1,1.237806702E1
2.077610962E1,-1.244201660E-1,2.416687012E-1,1.099023438E1
2.082610962E1,-1.842498779E-1,6.029968262E-1,8.575881958E0
2.087610962E1,-1.292114258E-1,1.586441040E0,8.193023682E0
2.092610962E1,-3.086700439E-1,1.940582275E0,8.181060791E0
2.097610962E1,-5.910339355E-1,2.423934937E0,9.643081665E0
2.102610962E1,-1.986083984E-1,2.802001953E0,9.899108887E0
2.107610962E1,-3.278198242E-1,2.744567871E0,9.970886230E0
2.112610962E1,1.794586182E-1,2.277969360E0,9.729217529E0
2.117610962E1,-4.737854004E-1,1.703689575E0,1.105004883E1
2.122610962E1,-6.700134277E-2,2.289932251E0,1.037767029E1
2.127610962E1,1.658233643E0,1.395019531E0,1.266760254E1
2.132610962E1,-3.445739746E-1,1.153335571E0,1.060499573E1
2.137610962E1,6.676025391E-1,1.533798218E0,8.726623535E0
2.142610962E1,6.484527588E-1,2.194213867E0,7.558929443E0
2.147610962E1,-4.570312500E-1,1.995620728E0,6.932006836E0
2.152610962E1,-2.560272217E-1,1.844863892E0,7.841278076E0
2.157610962E1,-1.459655762E-1,2.005187988E0,9.107086182E0
2.162610962E1,-7.177734375E-2,2.203796387E0,1.094715881E1
2.167610962E1,-4.235229492E-1,2.455032349E0,1.128933716E1
2.172610962E1,-5.670928955E-1,2.677566528E0,1.217707825E1
2.177610962E1,-1.076766968E0,2.646469116E0,1.124148560E1
2.182610962E1,1.363983154E-1,2.057830811E0,1.140898132E1
2.187610962E1,-9.092712402E-1,5.838470459E-1,1.115055847E1
2.192610962E1,-8.638153076E-1,6.316986084E-1,9.324829102E0
2.197610962E1,-1.239486694E0,1.356735229E0,7.518249512E0
2.202610962E1,-8.255310059E-1,1.749160767E0,7.549362183E0
2.207610962E1,-9.427795410E-1,2.589035034E0,8.688339233E0
2.212610962E1,-7.346038818E-1,3.026916504E0,9.410964966E0
2.217610962E1,-9.379882812E-1,2.756530762E0,1.001875305E1
2.222610962E1,-2.392883301E-1,2.605789185E0,1.039920044E1
2.227610962E1,-4.929199219E-1,1.954940796E0,1.129173279E1
2.232610962E1,-4.307556152E-2,2.115249634E0,1.018864441E1
2.237610962E1,-4.355010986E-1,5.790557861E-1,1.445982361E1
2.242610962E1,8.997039795E-1,7.346038818E-1,9.980468750E0
2.247610962E1,9.116668701E-1,1.045669556E0,8.729019165E0
2.252610962E1,2.129669189E-1,1.521835327E0,7.389038086E0
2.257610962E1,9.332275391E-2,1.849655151E0,6.824325562E0
2.262610962E1,2.943115234E-1,2.330612183E0,8.492126465E0
2.267610962E1,1.387786865E-1,2.988632202E0,9.020935059E0
2.272610962E1,-4.689941406E-1,2.940780640E0,1.134677124E1
2.277610962E1,1.244201660E-1,2.739776611E0,1.174876404E1
2.282610962E1,-4.570312500E-1,2.230117798E0,1.239002991E1
2.287610962E1,-3.469543457E-1,2.438293457E0,8.894119263E0
2.292610962E1,1.603240967E-1,5.694885254E-1,1.308395386E1
2.297610962E1,-2.153015137E-2,-5.048828125E-1,1.069592285E1
2.302610962E1,-1.914215088E-1,4.283142090E-1,8.303100586E0
2.307610962E1,-6.412811279E-1,1.505081177E0,6.597015381E0
2.312610962E1,-4.929199219E-1,2.266006470E0,7.848464966E0
2.317610962E1,-1.342376709E0,2.459823608E0,8.398803711E0
2.322610962E1,-8.135528564E-1,3.019744873E0,9.681365967E0
2.327610962E1,-1.292129517E0,2.309066772E0,1.065763855E1
2.332610962E1,-8.039855957E-1,3.091522217E0,1.026042175E1
2.337610962E1,-1.622329712E0,2.947952271E0,1.033938599E1
2.342610962E1,-9.427795410E-1,2.778060913E0,1.115773010E1
2.347610962E1,-1.751541138E0,7.992095947E-1,1.279441833E1
2.352610962E1,-1.919036865E0,3.972015381E-1,1.078684998E1
2.357610962E1,4.426727295E-1,1.631912231E0,9.169296265E0
2.362610962E1,-1.296905518E0,1.718048096E0,9.195617676E0
2.367610962E1,-1.371093750E0,2.579467773E0,7.590026855E0
2.372610962E1,-2.388031006E0,1.847259521E0,9.257827759E0
2.377610962E1,-7.106628418E-1,2.533996582E0,9.638290405E0
2.382610962E1,-1.002593994E0,1.837692261E0,9.623931885E0
2.387610962E1,-4.594268799E-1,2.330612183E0,9.341583252E0
2.392610962E1,-2.041076660E0,1.550552368E0,1.076290894E1
2.397610962E1,-1.177261353E0,1.866409302E0,1.149511719E1
2.402610962E1,-1.261016846E0,3.397827148E-1,1.493121338E1
2.407610962E1,-1.373474121E0,6.006011963E-1,9.521041870E0
2.412610962E1,-8.183441162E-1,8.231353760E-1,1.085623169E1
2.417610962E1,-9.786682129E-1,1.088729858E0,8.578262329E0
2.422610962E1,-1.450057983E0,1.782653809E0,7.331604004E0
2.427610962E1,-1.588836670E0,1.502685547E0,8.231307983E0
2.432610962E1,-1.196441650E-1,2.455032349E0,8.853439331E0
2.437610962E1,-2.464599609E-1,1.763504028E0,1.136351013E1
2.442610962E1,4.259185791E-1,1.832901001E0,1.137786865E1
2.447610962E1,-6.676025391E-1,1.239486694E0,1.084906006E1
2.452610962E1,6.747741699E-1,6.604156494E-1,1.040399170E1
2.457610962E1,5.981445312E-2,3.828430176E-2,1.348355103E1
2.462610962E1,5.910339355E-1,7.537384033E-1,9.200408936E0
2.467610962E1,1.000198364E0,9.020996094E-1,9.164505005E0
2.472610962E1,3.014984131E-1,1.368698120E0,7.874786377E0
2.477610962E1,-3.421783447E-1,1.320831299E0,7.970489502E0
2.482610962E1,4.378814697E-1,1.473983765E0,8.805587769E0
2.487610962E1,9.140625000E-1,1.634292603E0,1.041355896E1
2.492610962E1,9.020996094E-1,1.495513916E0,1.136351013E1
2.497610962E1,9.331970215E-1,1.844863892E0,1.079641724E1
2.502610962E1,5.886383057E-1,1.538589478E0,1.117926025E1
2.507610962E1,1.842468262E0,5.192413330E-1,1.161476135E1
2.512610962E1,-1.507415771E-1,-7.585296631E-1,1.413439941E1
2.517610962E1,3.517456055E-1,7.034912109E-1,7.417755127E0
2.522610962E1,6.101684570E-1,4.067840576E-1,9.406188965E0
2.527610962E1,4.857482910E-1,4.857482910E-1,9.530609131E0
2.532610962E1,-3.062744141E-1,1.160522461E0,7.992034912E0
2.537610962E1,4.689941406E-1,1.550552368E0,8.779266357E0
2.542610962E1,-3.373870850E-1,1.942977905E0,8.944366455E0
2.547610962E1,-2.368927002E-1,1.887939453E0,1.019104004E1
2.552610962E1,6.580200195E-1,1.344772339E0,1.073898315E1
2.557610962E1,-5.216369629E-1,1.043273926E0,1.240678406E1
2.562610962E1,1.016952515E0,1.794616699E0,9.171691895E0
2.567610962E1,-1.675415039E-2,-1.201202393E0,1.624487305E1
2.572610962E1,1.179656982E0,-6.700134277E-2,9.781860352E0
2.577610962E1,8.350982666E-1,3.325958252E-1,8.027923584E0
2.582610962E1,2.464599609E-1,6.388854980E-1,7.479965210E0
2.587610962E1,-2.416687012E-1,1.648651123E0,7.726425171E0
2.592610962E1,-1.148559570E0,1.730010986E0,9.547363281E0
2.597610962E1,-4.115600586E-1,2.146362305E0,9.238693237E0
2.602610962E1,-1.418945312E0,1.725219727E0,1.288056946E1
2.607610962E1,-7.968139648E-1,2.218139648E0,1.194018555E1
2.612610962E1,-2.009963989E0,2.108078003E0,8.934799194E0
2.617610962E1,9.020996094E-1,1.107879639E0,1.129652405E1
2.622610962E1,-6.364898682E-1,-5.814514160E-1,1.315812683E1
2.627610962E1,-3.995971680E-1,1.462020874E0,6.422332764E0
2.632610962E1,-2.823486328E-1,1.808975220E0,6.573089600E0
2.637610962E1,-9.068756104E-1,1.840087891E0,9.207580566E0
2.642610962E1,-1.342376709E0,2.682357788E0,1.122712708E1
2.647610962E1,-9.882354736E-1,2.732604980E0,1.040399170E1
2.652610962E1,-8.829498291E-1,2.266006470E0,9.863220215E0
2.657610962E1,-5.743408203E-2,1.509872437E0,1.077726746E1
2.662610962E1,-1.627044678E-1,1.813766479E0,1.038006592E1
2.667610962E1,1.574478149E0,1.275375366E0,1.296670532E1
2.672610962E1,-1.268157959E-1,4.785156250E-2,1.170089722E1
2.677610962E1,7.346038818E-1,1.428512573E0,7.874786377E0
2.682610962E1,2.392578125E-2,1.636688232E0,6.862609863E0
2.687610962E1,-2.129669189E-1,1.866409302E0,5.182861328E0
2.692610962E1,-9.092712402E-1,1.777862549E0,8.288742065E0
2.697610962E1,2.823486328E-1,2.802001953E0,9.188446045E0
2.702610962E1,-7.968139648E-1,2.660812378E0,1.078684998E1
2.707610962E1,3.134613037E-1,2.603393555E0,1.155255127E1
2.712610962E1,-8.613586426E-2,2.792419434E0,1.194018555E1
2.717610962E1,3.230285645E-1,1.928619385E0,1.058584595E1
2.722610962E1,-3.780670166E-1,1.768295288E0,1.060737610E1
2.727610962E1,-1.320831299E0,9.523468018E-1,1.004985046E1
2.732610962E1,-5.383911133E-1,1.088729858E0,1.000439453E1
2.737610962E1,-3.182525635E-1,1.682159424E0,6.802795410E0
2.742610962E1,-1.189239502E0,1.677368164E0,8.664413452E0
2.747610962E1,-9.809875488E-2,1.990829468E0,8.501693726E0
2.752610962E1,-9.882354736E-1,2.402389526E0,1.050448608E1
2.757610962E1,-5.623168945E-1,1.550552368E0,1.177986145E1
2.762610962E1,-4.067993164E-2,1.454833984E0,1.307678223E1
2.767610962E1,1.045669556E0,1.794616699E0,1.066960144E1
2.772610962E1,2.074584961E0,1.016952515E0,1.232781982E1
2.777610962E1,-8.877410889E-1,3.828430176E-2,1.043270874E1
2.782610962E1,-4.522399902E-1,9.188385010E-1,8.953948975E0
2.787610962E1,-4.402770996E-1,1.964508057E0,6.960723877E0
2.792610962E1,-5.862426758E-1,2.055435181E0,6.867401123E0
2.797610962E1,-3.828582764E-1,1.871185303E0,7.566101074E0
2.802610962E1,1.603240967E-1,2.553146362E0,1.000917053E1
2.807610962E1,1.387786865E-1,2.313858032E0,1.059541321E1
2.812610962E1,6.053771973E-1,2.359329224E0,1.261975098E1
2.817610962E1,-8.925170898E-1,2.646469116E0,1.088494873E1
2.822610962E1,1.253845215E0,2.167892456E0,1.092562866E1
2.827610962E1,-9.643096924E-1,1.064804077E0,1.037049866E1
2.832610962E1,-9.451599121E-1,9.762725830E-1,9.497116089E0
2.837610962E1,-7.034912109E-1,1.074371338E0,7.475173950E0
2.842610962E1,-6.125640869E-1,1.643875122E0,6.970291138E0
2.847610962E1,-7.920227051E-1,1.430908203E0,9.858428955E0
2.852610962E1,-2.033843994E-1,1.696517944E0,9.676574707E0
2.857610962E1,-6.628112793E-1,1.249053955E0,1.165304565E1
2.862610962E1,8.518524170E-1,1.287338257E0,1.094238281E1
2.867610962E1,-6.125640869E-1,1.019348145E0,1.296430969E1
2.872610962E1,2.495712280E0,2.199005127E0,9.059234619E0
2.877610962E1,-7.346038818E-1,7.728881836E-1,1.169372559E1
2.882610962E1,1.483612061E-1,7.752685547E-1,1.169612122E1
2.887610962E1,-3.182525635E-1,1.203582764E0,1.018145752E1
2.892610962E1,-6.221008301E-2,2.134399414E0,6.453445435E0
2.897610962E1,-6.580200195E-1,2.041076660E0,6.991821289E0
2.902610962E1,1.962127686E-1,2.371292114E0,8.008773804E0
2.907610962E1,-4.331054688E-1,2.120040894E0,1.039442444E1
2.912610962E1,3.661041260E-1,1.777862549E0,1.189950562E1
2.917610962E1,-5.623168945E-1,1.902297974E0,1.294038391E1
2.922610962E1,-2.991027832E-1,2.280364990E0,9.731613159E0
2.927610962E1,-1.462020874E0,-2.249298096E-1,1.195933533E1
2.932610962E1,1.052856445E-1,7.322082520E-1,8.913269043E0
2.937610962E1,-1.172485352E-1,9.068756104E-1,9.339187622E0
2.942610962E1,-5.766754150E-1,1.663009644E0,7.293319702E0
2.947610962E1,-8.590240479E-1,2.012359619E0,7.714462280E0
2.952610962E1,-1.818542480E-1,2.464614868E0,8.599807739E0
2.957610962E1,-1.627044678E-1,2.804382324E0,1.034657288E1
2.962610962E1,4.857482910E-1,2.115249634E0,1.039682007E1
2.967610962E1,-3.972015381E-1,2.170288086E0,1.167457581E1
2.972610962E1,1.016952515E0,3.175277710E0,9.375076294E0
2.977610962E1,-3.876342773E-1,8.661956787E-1,1.296430969E1
2.982610962E1,7.896423340E-2,9.547424316E-1,8.963516235E0
2.987610962E1,8.446655273E-1,1.237091064E0,9.710067749E0
2.992610962E1,7.130584717E-1,1.957336426E0,7.501495361E0
2.997610962E1,1.363983154E-1,2.165512085E0,7.077972412E0
3.002610962E1,-7.177734375E-2,2.258819580E0,8.695510864E0
3.007610962E1,1.507415771E-1,2.682357788E0,9.954147339E0
3.012610962E1,-4.450683594E-1,2.725418091E0,1.114816284E1
3.017610962E1,4.139556885E-1,2.371292114E0,1.189233398E1
3.022610962E1,-1.124633789E0,2.466995239E0,1.117687988E1
3.027610962E1,1.052856445E-1,1.567306519E0,9.863220215E0
3.032610962E1,-1.249053955E0,5.647125244E-1,9.327224731E0
3.037610962E1,8.853149414E-2,8.590240479E-1,1.086819458E1
3.042610962E1,-2.225341797E-1,1.067199707E0,9.358322144E0
3.047610962E1,-5.168457031E-1,1.832901001E0,7.800598145E0
3.052610962E1,-3.661041260E-1,2.014755249E0,7.951354980E0
3.057610962E1,1.651000977E-1,2.615356445E0,9.846466064E0
3.062610962E1,-4.115600586E-1,2.100891113E0,1.047816467E1
3.067610962E1,1.024124146E0,1.871185303E0,1.081317139E1
3.072610962E1,-5.024871826E-1,1.232299805E0,1.188993835E1
3.077610962E1,5.551300049E-1,2.620147705E0,1.010968018E1
3.082610962E1,1.459655762E-1,3.469543457E-1,1.431147766E1
3.087610962E1,-6.029968262E-1,2.967071533E-1,1.061216736E1
3.092610962E1,-1.674957275E-1,6.843414307E-1,1.002592468E1
3.097610962E1,4.929199219E-1,1.663009644E0,8.480163574E0
3.102610962E1,-3.445739746E-1,2.220535278E0,6.357727051E0
3.107610962E1,1.698913574E-1,2.213363647E0,7.960922241E0
3.112610962E1,1.722869873E-1,2.658432007E0,9.456436157E0
3.117610962E1,5.192413330E-1,2.474182129E0,1.161715698E1
3.122610962E1,5.072784424E-1,2.177474976E0,1.168415833E1
3.127610962E1,-5.264282227E-1,2.505279541E0,1.117687988E1
3.132610962E1,1.000198364E0,1.756332397E0,1.088017273E1
3.137610962E1,-1.153335571E0,8.374938965E-1,9.714859009E0
3.142610962E1,-7.417755127E-1,1.347152710E0,8.836700439E0
3.147610962E1,-1.079162598E0,1.201202393E0,8.898910522E0
3.152610962E1,-2.321014404E-1,1.909469604E0,7.343566895E0
3.157610962E1,-8.446655273E-1,2.199005127E0,8.427520752E0
3.162610962E1,3.349304199E-2,3.005386353E0,8.106887817E0
3.167610962E1,-2.991027832E-1,2.768493652E0,1.006420898E1
3.172610962E1,3.325958252E-1,2.368896484E0,1.066001892E1
3.177610962E1,8.375549316E-2,1.911865234E0,1.230149841E1
3.182610962E1,-4.570312500E-1,2.201400757E0,1.079162598E1
3.187610962E1,8.733825684E-1,1.768295288E0,1.294995117E1
3.192610962E1,-1.196411133E0,1.014556885E0,1.159083557E1
3.197610962E1,3.565368652E-1,1.521835327E0,8.858230591E0
3.202610962E1,-1.052856445E-1,1.598403931E0,8.836700439E0
3.207610962E1,-7.171630859E-3,2.246856689E0,7.355529785E0
3.212610962E1,-8.207397461E-1,2.115249634E0,8.039886475E0
3.217610962E1,2.560272217E-1,2.653640747E0,8.937194824E0
3.222610962E1,-2.297058105E-1,2.431106567E0,1.073898315E1
3.227610962E1,1.028900146E-1,2.533996582E0,1.136830139E1
3.232610962E1,-1.914215088E-1,2.172683716E0,1.208854675E1
3.237610962E1,-4.091796875E-1,2.632110596E0,9.719650269E0
3.242610962E1,-7.250213623E-1,1.387832642E0,1.323709106E1
3.247610962E1,-8.350982666E-1,1.280166626E0,8.848663330E0
3.252610962E1,-2.440643311E-1,1.026519775E0,1.024606323E1
3.257610962E1,-1.411743164E-1,1.801788330E0,7.788635254E0
3.262610962E1,-9.068756104E-1,1.832901001E0,7.353149414E0
3.267610962E1,-1.483612061E-1,2.684753418E0,8.417953491E0
3.272610962E1,-3.780670166E-1,2.723037720E0,9.731613159E0
3.277610962E1,-1.555328369E-1,2.837890625E0,1.071266174E1
3.282610962E1,5.024719238E-2,1.933395386E0,1.145443726E1
3.287610962E1,-3.134613037E-1,2.213363647E0,1.225842285E1
3.292610962E1,1.538589478E0,1.703689575E0,1.207658386E1
3.297610962E1,-3.924255371E-1,5.312042236E-1,1.258863831E1
3.302610962E1,1.507415771E-1,1.469192505E0,8.989837646E0
3.307610962E1,5.024871826E-1,1.873580933E0,8.403594971E0
3.312610962E1,-7.561340332E-1,2.208572388E0,6.886550903E0
3.317610962E1,-4.905242920E-1,2.134399414E0,7.300506592E0
3.322610962E1,1.579284668E-1,2.543563843E0,8.539978027E0
3.327610962E1,6.532440186E-1,2.821136475E0,1.049252319E1
3.332610962E1,1.435699463E-1,2.785247803E0,1.112423706E1
3.337610962E1,-6.221008301E-2,2.428710938E0,1.254078674E1
3.342610962E1,-1.818542480E-1,2.974273682E0,1.050688171E1
3.347610962E1,-9.786682129E-1,1.201202393E0,1.283032227E1
3.352610962E1,-1.079162598E0,1.540985107E0,8.214553833E0
3.357610962E1,-8.685913086E-1,7.872314453E-1,9.844070435E0
3.362610962E1,-1.986083984E-1,1.775466919E0,8.712265015E0
3.367610962E1,-8.183441162E-1,2.053039551E0,7.298110962E0
3.372610962E1,-1.770629883E-1,2.715850830E0,8.733810425E0
3.377610962E1,3.349304199E-2,2.864212036E0,9.659820557E0
3.382610962E1,-6.484527588E-1,2.514862061E0,9.863220215E0
3.387610962E1,2.799530029E-1,2.065002441E0,1.110508728E1
3.392610962E1,-1.651000977E-1,1.868789673E0,1.209092712E1
3.397610962E1,9.092712402E-1,1.744369507E0,1.078445435E1
3.402610962E1,-2.488555908E-1,9.571228027E-1,1.240438843E1
3.407610962E1,3.876342773E-1,1.359130859E0,9.382263184E0
3.412610962E1,-1.100769043E-1,1.433303833E0,9.803390503E0
3.417610962E1,-2.895355225E-1,2.354537964E0,6.776473999E0
3.422610962E1,-5.575256348E-1,2.555541992E0,7.948959351E0
3.427610962E1,9.571838379E-2,2.675170898E0,8.528015137E0
3.432610962E1,1.914215088E-1,2.562713623E0,9.930221558E0
3.437610962E1,-5.264282227E-2,2.517242432E0,1.107637024E1
3.442610962E1,-2.392578125E-2,2.354537964E0,1.206222534E1
3.447610962E1,-1.148529053E-1,2.593826294E0,1.115533447E1
3.452610962E1,1.777862549E0,2.306686401E0,1.167457581E1
3.457610962E1,-1.040878296E0,8.494567871E-1,1.060977173E1
3.462610962E1,-3.517456055E-1,1.107879639E0,9.212371826E0
3.467610962E1,2.608184814E-1,1.567306519E0,7.535003662E0
3.472610962E1,4.067993164E-2,2.086547852E0,6.764511108E0
3.477610962E1,3.924255371E-1,2.672790527E0,8.611770630E0
3.482610962E1,7.561340332E-1,2.641677856E0,9.688537598E0
3.487610962E1,-2.895355225E-1,2.005187988E0,1.077726746E1
3.492610962E1,7.058868408E-1,1.923828125E0,1.030589294E1
3.497610962E1,1.675415039E-2,1.210769653E0,1.235174561E1
3.502610962E1,1.531402588E0,2.148757935E0,9.229110718E0
3.507610962E1,1.225128174E0,4.522399902E-1,1.575434875E1
3.512610962E1,1.134201050E0,8.446655273E-1,1.071505737E1
3.517610962E1,1.079162598E0,1.270584106E0,8.997009277E0
3.522610962E1,7.561340332E-1,1.880752563E0,6.565902710E0
3.527610962E1,-3.014984131E-1,2.062606812E0,6.587448120E0
3.532610962E1,5.503845215E-2,2.065002441E0,7.968093872E0
3.537610962E1,2.727813721E-1,2.490921021E0,9.858428955E0
3.542610962E1,-2.847442627E-1,2.390426636E0,1.024366760E1
3.547610962E1,-3.732757568E-1,2.536392212E0,1.105963135E1
3.552610962E1,-4.067993164E-2,2.371292114E0,1.158604431E1
3.557610962E1,1.119842529E0,1.878372192E0,1.206700134E1
3.562610962E1,-8.757781982E-1,4.977111816E-1,1.147358704E1
3.567610962E1,-6.221008301E-2,1.083953857E0,8.640487671E0
3.572610962E1,8.135986328E-2,9.427795410E-1,8.405990601E0
3.577610962E1,1.124572754E-1,1.615158081E0,8.118850708E0
3.582610962E1,-2.129669189E-1,1.694122314E0,9.408584595E0
3.587610962E1,-2.632141113E-2,2.333007812E0,9.243469238E0
3.592610962E1,-2.799530029E-1,2.912063599E0,8.757736206E0
3.597610962E1,-2.177429199E-1,2.919250488E0,9.911071777E0
3.602610962E1,-2.081756592E-1,2.543563843E0,1.011207581E1
3.607610962E1,-8.135528564E-1,2.323425293E0,1.154058838E1
3.612610962E1,-6.412811279E-1,2.366500854E0,9.040084839E0
3.617610962E1,3.900299072E-1,1.483612061E-1,1.498864746E1
3.622610962E1,6.939697266E-2,2.895355225E-1,1.115533447E1
3.627610962E1,1.110275269E0,1.222732544E0,9.178863525E0
3.632610962E1,8.135528564E-1,2.115249634E0,6.403198242E0
3.637610962E1,-3.349914551E-1,1.954940796E0,6.592224121E0
3.642610962E1,7.657012939E-1,2.009963989E0,8.341384888E0
3.647610962E1,8.398742676E-1,2.234893799E0,9.846466064E0
3.652610962E1,-1.411743164E-1,2.251647949E0,1.113859558E1
3.657610962E1,3.230285645E-1,2.904891968E0,1.072462463E1
3.662610962E1,4.791259766E-3,2.553146362E0,1.172244263E1
3.667610962E1,-2.943115234E-1,2.627319336E0,9.473190308E0
3.672610962E1,-1.914978027E-2,1.459625244E0,1.248574829E1
3.677610962E1,-1.167694092E0,5.862426758E-1,9.760330200E0
3.682610962E1,-6.532440186E-1,9.260253906E-1,6.649658203E0
3.687610962E1,-2.727813721E-1,2.153472900E-1,9.269790649E0
3.692610962E1,-5.743408203E-2,7.346038818E-1,8.484954834E0
3.697610962E1,-4.163513184E-1,8.183441162E-1,9.288940430E0
3.702610962E1,7.800598145E-1,2.038681030E0,9.099899292E0
3.707610962E1,-5.024871826E-1,2.455032349E0,9.911071777E0
3.712610962E1,1.627044678E-1,2.500503540E0,1.099263000E1
3.717610962E1,2.967071533E-1,2.502899170E0,1.095434570E1
3.722610962E1,7.417297363E-2,2.292327881E0,1.134915161E1
3.727610962E1,-3.469543457E-1,2.282745361E0,1.029631042E1
3.732610962E1,2.368927002E-1,9.810638428E-1,1.103330994E1
3.737610962E1,2.105712891E-1,7.177734375E-2,1.166979980E1
3.742610962E1,2.799530029E-1,8.542327881E-1,7.812561035E0
3.747610962E1,1.418945312E0,8.781585693E-1,7.800598145E0
3.752610962E1,2.189437866E0,4.091796875E-1,1.083949280E1
3.757610962E1,3.062744141E-1,3.421783447E-1,9.698104858E0
3.762610962E1,1.012161255E0,9.379882812E-1,8.951553345E0
3.767610962E1,1.529006958E0,1.043273926E0,9.820144653E0
3.772610962E1,1.299301147E0,8.255310059E-1,9.848861694E0
3.777610962E1,9.858398438E-1,9.284210205E-1,9.961318970E0
3.782610962E1,1.493118286E0,9.643096924E-1,1.036810303E1
3.787610962E1,6.532440186E-1,7.369842529E-1,9.812973022E0
3.792610962E1,2.395629883E-3,1.040878296E0,1.006181335E1
3.797610962E1,-3.062744141E-1,1.009765625E0,9.547363281E0
3.802610962E1,7.800598145E-1,1.351943970E0,9.358322144E0
3.807610962E1,-6.221008301E-2,5.527496338E-1,1.030349731E1
3.812610962E1,5.910339355E-1,7.010955811E-1,1.093280029E1
3.817610962E1,1.060012817E0,8.015899658E-1,1.033459473E1
3.822610962E1,-5.431671143E-1,1.473983765E0,1.006181335E1
3.827610962E1,-6.006011963E-1,1.655838013E0,9.927825928E0
3.832610962E1,-8.375549316E-2,2.359329224E0,9.422943115E0
3.837610962E1,-4.450683594E-1,1.450057983E0,9.681365967E0
3.842610962E1,-5.503845215E-2,1.450057983E0,1.042791748E1
3.847610962E1,4.019927979E-1,1.663009644E0,1.000439453E1
3.852610962E1,-3.325958252E-1,1.502685547E0,9.760330200E0
3.857610962E1,-4.067993164E-2,1.789825439E0,1.017906189E1
3.862610962E1,-2.871398926E-1,1.715652466E0,9.951751709E0
3.867610962E1,-4.761657715E-1,1.536193848E0,1.009053040E1
3.872610962E1,-4.067840576E-1,1.780258179E0,9.743576050E0
3.877610962E1,-8.375549316E-2,1.490722656E0,1.032981873E1
3.882610962E1,-3.732757568E-1,1.473983765E0,1.010488892E1
3.887610962E1,-8.375549316E-2,1.512268066E0,9.564117432E0
3.892610962E1,-2.751770020E-1,1.514663696E0,9.717254639E0
3.897610962E1,-2.273254395E-1,1.452438354E0,9.932601929E0
3.902610962E1,-1.148529053E-1,1.476364136E0,9.903900146E0
3.907610962E1,-2.249298096E-1,1.423736572E0,9.980468750E0
3.912610962E1,-2.321014404E-1,1.684539795E0,9.956542969E0
3.917610962E1,-2.847442627E-1,1.258621216E0,9.925430298E0
3.922610962E1,-1.842498779E-1,1.473983765E0,9.786651611E0
3.927610962E1,-1.100769043E-1,1.265808105E0,1.014796448E1
3.932610962E1,-1.890258789E-1,1.323226929E0,1.000679016E1
3.937610962E1,-1.531372070E-1,1.351943970E0,9.942184448E0
3.942610962E1,-2.751770020E-1,1.225128174E0,1.000679016E1
3.947610962E1,-5.359954834E-1,1.641479492E0,9.827316284E0
3.952610962E1,-5.192413330E-1,1.409378052E0,9.757934570E0
3.957610962E1,-5.934143066E-1,1.473983765E0,9.927825928E0
3.962610962E1,-6.484527588E-1,1.545761108E0,9.841674805E0
3.967610962E1,-1.129409790E0,1.540985107E0,9.504287720E0
3.972610962E1,-9.427795410E-1,1.572082520E0,9.915863037E0
