"Time (s)","Gyroscope x (rad/s)","Gyroscope y (rad/s)","Gyroscope z (rad/s)"
6.408371500E-2,-6.780242920E-1,-2.521057129E-1,4.557800293E-2
1.140837150E-1,2.181091309E-1,6.980895996E-2,1.659240723E-1
1.640837150E-1,1.014404297E-1,-2.588348389E-1,-1.059112549E-1
2.140837150E-1,1.713562012E-2,2.707824707E-1,9.918212891E-4
2.640837150E-1,-6.593322754E-2,1.986999512E-1,-1.694488525E-1
3.140837150E-1,-5.432128906E-2,-1.264953613E-2,7.244873047E-2
3.640837150E-1,5.500793457E-2,2.188568115E-1,7.489013672E-2
4.140837150E-1,4.158020020E-2,3.620910645E-2,8.100891113E-2
4.640837150E-1,-2.485809326E-1,-1.390991211E-1,-1.211853027E-1
5.140837150E-1,-3.395996094E-1,-4.274291992E-1,8.406066895E-2
5.640837150E-1,-4.843750000E-1,-1.293334961E-1,-1.028594971E-1
6.140837150E-1,-1.227416992E-1,9.484863281E-2,1.502990723E-2
6.640837150E-1,-1.190795898E-1,-8.045959473E-2,-1.242370605E-1
7.140837150E-1,-1.141967773E-1,2.982788086E-1,3.701782227E-2
7.640837150E-1,-1.868743896E-1,-3.770446777E-2,-1.672363281E-2
8.140837150E-1,-1.178588867E-1,1.779327393E-1,-7.843017578E-2
8.640837150E-1,-5.187988281E-2,-4.197692871E-2,6.512451172E-2
9.140837150E-1,-1.960449219E-1,-1.205444336E-2,-1.499023438E-1
9.640837150E-1,-4.403991699E-1,-4.280548096E-1,-2.543487549E-1
1.014083715E0,-2.919464111E-1,-3.064880371E-1,5.534362793E-2
1.064083715E0,-2.473602295E-1,-4.685974121E-2,1.591949463E-1
1.114083715E0,-9.158325195E-2,-5.080718994E-1,1.231536865E-1
1.164083715E0,2.517242432E-1,-2.698364258E-1,1.995086670E-1
1.214083715E0,8.821411133E-1,9.545898438E-2,4.985046387E-2
1.264083715E0,5.620422363E-1,7.497100830E-1,-4.583892822E-1
1.314083715E0,6.408691406E-4,3.318634033E-1,-3.490447998E-1
1.364083715E0,3.494567871E-1,-2.814331055E-1,-2.244262695E-1
1.414083715E0,4.502563477E-1,-2.734985352E-1,-2.341918945E-1
1.464083715E0,2.437744141E-1,3.446960449E-1,-2.610778809E-1
1.514083715E0,1.515350342E-1,-8.412170410E-2,1.604156494E-1
1.564083715E0,4.386444092E-1,-1.818695068E-1,1.304931641E-1
1.614083715E0,1.380920410E-1,2.398681641E-2,-4.727172852E-2
1.664083715E0,4.532928467E-1,-3.219604492E-2,1.756896973E-1
1.714083715E0,4.551391602E-1,1.114395142E0,4.181976318E-1
1.764083715E0,-1.777191162E-1,-8.984069824E-1,-5.762939453E-1
1.814083715E0,-3.416442871E-2,-1.311645508E-1,-2.708587646E-1
1.864083715E0,-5.515747070E-1,6.507415771E-1,8.283996582E-2
1.914083715E0,-9.124755859E-3,-4.726409912E-1,6.268310547E-2
1.964083715E0,3.317413330E-1,7.774353027E-2,3.387908936E-1
2.014083715E0,4.313049316E-1,-1.922454834E-1,3.033599854E-1
2.064083715E0,4.722442627E-1,-4.054412842E-1,4.653930664E-3
2.114083715E0,1.008300781E-1,9.729003906E-2,-1.859436035E-1
2.164083715E0,1.643676758E-1,-4.237670898E-1,-5.225219727E-1
2.214083715E0,-2.944030762E-1,4.118804932E-1,-3.233795166E-1
2.264083715E0,-9.920043945E-1,-5.847167969E-2,-1.109573364E0
2.314083715E0,-1.612243652E-1,4.430541992E-1,2.969360352E-2
2.364083715E0,-4.098510742E-1,2.756652832E-1,-3.199768066E-2
2.414083715E0,3.628845215E-1,-3.278656006E-1,-8.087158203E-2
2.464083715E0,1.038818359E-1,3.336944580E-1,-7.292175293E-2
2.514083715E0,4.465789795E-1,-6.945800781E-2,-9.309387207E-2
2.564083715E0,2.456054688E-1,-2.117919922E-1,-1.627349854E-1
2.614083715E0,2.877502441E-1,-1.020812988E-2,-2.030487061E-1
2.664083715E0,2.156677246E-1,6.307983398E-2,9.918212891E-4
2.714083715E0,1.057128906E-1,4.658508301E-2,-6.254577637E-2
2.764083715E0,-1.441192627E-1,-1.250610352E-1,-3.044433594E-1
2.814083715E0,-4.049682617E-1,-1.806488037E-1,5.534362793E-2
2.864083715E0,-1.819915771E-1,-5.847167969E-2,2.416534424E-1
2.914083715E0,-1.997070312E-1,1.571655273E-1,2.410583496E-1
2.964083715E0,4.080963135E-1,-2.570037842E-1,3.369598389E-1
3.014083715E0,1.967315674E-1,9.851074219E-2,1.909637451E-1
3.064083715E0,2.254486084E-1,-1.653747559E-1,9.077453613E-2
3.114083715E0,2.480468750E-1,5.209350586E-2,3.051910400E-1
3.164083715E0,4.707336426E-2,3.742980957E-2,-7.780456543E-2
3.214083715E0,2.792053223E-1,2.396240234E-1,3.485717773E-1
3.264083715E0,-2.498016357E-1,2.848358154E-1,-4.730529785E-1
3.314083715E0,-3.066101074E-1,7.469177246E-2,-7.414245605E-2
3.364083715E0,-3.988494873E-1,-1.482696533E-1,-9.124755859E-2
3.414083715E0,7.273864746E-2,1.376190186E-1,2.398223877E-1
3.464083715E0,1.393127441E-1,3.886718750E-1,3.693389893E-1
3.514083715E0,2.236175537E-1,-2.056884766E-1,2.343292236E-1
3.564083715E0,3.653411865E-1,-2.783813477E-1,2.312774658E-1
3.614083715E0,1.503143311E-1,5.053558350E-1,2.196655273E-1
3.664083715E0,3.732757568E-1,-3.797912598E-1,1.567535400E-1
3.714083715E0,5.500793457E-2,8.046875000E-1,1.879119873E-1
3.764083715E0,-1.428985596E-1,-6.974334717E-1,-3.319396973E-1
3.814083715E0,-9.709167480E-2,6.336364746E-1,2.606048584E-1
3.864083715E0,-5.595092773E-1,-6.864471436E-1,-5.032348633E-2
3.914083715E0,6.906127930E-2,-5.929718018E-1,1.625061035E-2
3.964083715E0,-3.237152100E-1,3.831787109E-1,1.897430420E-1
4.014083715E0,3.439483643E-1,-2.759399414E-1,2.422790527E-1
4.064083715E0,1.924591064E-1,-2.472229004E-1,1.201019287E-1
4.114083715E0,1.765747070E-1,-2.869415283E-1,-4.727172852E-2
4.164083715E0,1.044921875E-1,-1.629333496E-1,-1.376800537E-1
4.214083715E0,6.356811523E-2,5.951538086E-1,1.353759766E-1
4.264083715E0,-6.193847656E-1,-4.952392578E-1,-7.076263428E-1
4.314083715E0,-3.841857910E-1,1.687622070E-1,-5.781097412E-1
4.364083715E0,-3.903045654E-1,3.923339844E-1,6.484985352E-3
4.414083715E0,-4.318389893E-1,-1.122283936E-1,-3.199768066E-2
4.464083715E0,4.928588867E-3,1.150054932E-1,1.683654785E-1
4.514083715E0,-2.326965332E-1,9.301757812E-2,-4.421997070E-2
4.564083715E0,7.980346680E-3,-3.687896729E-1,-5.737304688E-3
4.614083715E0,-5.798339844E-4,-9.451293945E-2,1.164245605E-1
4.664083715E0,-1.496276855E-1,1.351623535E-1,-3.871154785E-2
4.714083715E0,4.453582764E-1,1.254272461E0,2.050170898E-1
4.764083715E0,-4.220733643E-1,-9.878540039E-2,1.809692383E-2
4.814083715E0,3.836517334E-1,-7.915191650E-1,1.414794922E-1
4.864083715E0,-1.447296143E-1,2.921600342E-1,8.161926270E-2
4.914083715E0,-4.648284912E-1,3.312530518E-1,3.335571289E-2
4.964083715E0,1.075439453E-1,-2.221832275E-1,-1.095733643E-1
5.014083715E0,-1.172332764E-1,2.891082764E-1,3.579711914E-2
5.064083715E0,3.546142578E-2,-6.290283203E-1,-9.613037109E-2
5.114083715E0,4.050445557E-1,-4.457550049E-1,2.114868164E-2
5.164083715E0,-3.860321045E-1,3.312530518E-1,-2.775726318E-1
5.214083715E0,4.649047852E-1,2.829895020E-1,2.080688477E-1
5.264083715E0,-4.917144775E-1,-1.018524170E-1,-6.037750244E-1
5.314083715E0,-3.059997559E-1,-7.252502441E-2,-1.486663818E-1
5.364083715E0,-4.709472656E-1,-3.254241943E-1,8.406066895E-2
5.414083715E0,1.130523682E-1,3.856201172E-1,3.913269043E-1
5.464083715E0,6.234741211E-2,4.638214111E-1,6.083679199E-2
5.514083715E0,2.028503418E-1,-3.907775879E-1,-4.421997070E-2
5.564083715E0,1.436004639E-1,-2.563934326E-1,-4.910278320E-2
5.614083715E0,1.319885254E-1,2.158050537E-1,1.258850098E-2
5.664083715E0,1.179351807E-1,9.545898438E-2,5.900573730E-2
5.714083715E0,3.916015625E-1,1.490066528E0,4.994506836E-1
5.764083715E0,-2.607879639E-1,-3.193054199E-1,-2.940673828E-1
5.814083715E0,-6.593322754E-2,-8.324432373E-1,-2.433624268E-1
5.864083715E0,-5.674438477E-1,4.882507324E-1,1.139831543E-1
5.914083715E0,-3.072204590E-1,-1.696472168E-1,-9.187316895E-2
5.964083715E0,2.572021484E-1,-1.647644043E-1,2.037963867E-1
6.014083715E0,1.545867920E-1,1.571655273E-1,8.345031738E-2
6.064083715E0,2.816467285E-1,-2.832794189E-1,-9.490966797E-2
6.114083715E0,1.680297852E-1,-6.945800781E-2,-1.184082031E-2
6.164083715E0,2.487182617E-3,9.973144531E-2,-2.091522217E-1
6.214083715E0,-1.117401123E-1,2.921600342E-1,1.353759766E-1
6.264083715E0,-1.764984131E-1,-6.216888428E-1,-8.249053955E-1
6.314083715E0,-1.245727539E-1,6.751708984E-1,-6.315612793E-2
6.364083715E0,-4.935302734E-1,5.200195312E-1,-3.032226562E-1
6.414083715E0,1.955108643E-1,-9.878540039E-2,9.504699707E-2
6.464083715E0,-5.432128906E-2,1.076660156E-1,1.194915771E-1
6.514083715E0,2.504882812E-1,-5.838165283E-1,1.695861816E-1
6.564083715E0,2.388763428E-1,-1.238403320E-1,2.306671143E-1
6.614083715E0,2.847137451E-1,2.078552246E-1,1.604156494E-1
6.664083715E0,4.765167236E-1,1.742706299E-1,2.147827148E-1
6.714083715E0,-4.272460938E-2,-4.763031006E-1,-5.127563477E-1
6.764083715E0,2.712707520E-1,5.389556885E-1,-2.238159180E-1
6.814083715E0,-4.758300781E-1,-2.765502930E-1,-3.331604004E-1
6.864083715E0,-2.467498779E-1,1.956481934E-1,-1.547851562E-1
6.914083715E0,-1.630554199E-1,2.335205078E-1,2.355499268E-1
6.964083715E0,3.525085449E-1,-5.441131592E-1,9.565734863E-2
7.014083715E0,7.089233398E-2,-2.093505859E-1,1.687622070E-2
7.064083715E0,9.811401367E-3,8.728027344E-3,-1.871643066E-1
7.114083715E0,1.469421387E-2,-8.963012695E-2,-2.955627441E-2
7.164083715E0,3.974914551E-2,3.375244141E-2,-1.718902588E-1
7.214083715E0,-4.061889648E-1,1.822052002E-1,-1.107940674E-1
7.264083715E0,-3.066101074E-1,-9.512329102E-2,-5.891113281E-1
7.314083715E0,-2.137603760E-1,8.996582031E-2,1.747131348E-2
7.364083715E0,-2.339172363E-1,2.194671631E-1,1.152038574E-1
7.414083715E0,1.478576660E-1,2.341308594E-1,9.504699707E-2
7.464083715E0,1.264953613E-1,-3.016052246E-1,7.489013672E-2
7.514083715E0,5.003356934E-1,-9.179687500E-1,1.756896973E-1
7.564083715E0,6.356811523E-2,3.672943115E-1,2.908325195E-2
7.614083715E0,3.598327637E-1,1.382141113E-1,2.166137695E-1
7.664083715E0,4.746856689E-1,1.125640869E-1,1.628570557E-1
7.714083715E0,1.258697510E-1,5.707244873E-1,2.471618652E-1
7.764083715E0,2.718658447E-1,-5.392303467E-1,-4.333343506E-1
7.814083715E0,-4.159545898E-1,5.084075928E-1,1.565551758E-2
7.864083715E0,-3.829650879E-1,-4.262084961E-1,1.714019775E-1
7.914083715E0,-8.792114258E-2,-2.792358398E-2,2.532653809E-1
7.964083715E0,-2.012634277E-2,-2.044677734E-1,3.009185791E-1
8.014083715E0,3.118896484E-2,-4.506530762E-1,2.715911865E-1
8.064083715E0,4.890441895E-2,-1.525421143E-1,3.461303711E-1
8.114083715E0,2.785949707E-1,-4.396514893E-1,2.795257568E-1
8.164083715E0,1.869659424E-1,-3.394775391E-1,2.312774658E-1
8.214083715E0,-5.493164062E-2,6.476898193E-1,4.194183350E-1
8.264083715E0,-2.944030762E-1,-5.526580811E-1,-1.779937744E-1
8.314083715E0,-4.593200684E-1,4.870300293E-1,8.665771484E-1
8.364083715E0,-1.325225830E-1,-6.764221191E-2,9.734802246E-1
8.414083715E0,-1.410675049E-1,-2.753295898E-1,1.240432739E0
8.464083715E0,-3.200531006E-1,-2.484436035E-1,1.111541748E0
8.514083715E0,-1.655120850E-1,-4.585876465E-1,1.401092529E0
8.564083715E0,-3.660583496E-2,-3.296966553E-1,1.827484131E0
8.614083715E0,1.387023926E-1,-1.348266602E-1,1.940490723E0
8.664083715E0,2.999725342E-1,-3.675689697E-1,2.247756958E0
8.714083715E0,2.761535645E-1,1.022750854E0,2.355880737E0
8.764083715E0,2.132263184E-1,3.926086426E-2,2.523269653E0
8.814083715E0,1.148681641E-1,-3.648376465E-2,2.570297241E0
8.864083715E0,-4.910888672E-1,-2.661743164E-1,1.718750000E0
8.914083715E0,9.811401367E-3,9.170837402E-1,2.393753052E0
8.964083715E0,-3.660583496E-2,2.506256104E-1,2.074890137E0
9.014083715E0,4.219055176E-2,-5.648803711E-1,1.911163330E0
9.064083715E0,2.325439453E-2,-2.466278076E-1,1.542205811E0
9.114083715E0,-2.743530273E-2,-4.164428711E-1,7.871704102E-1
9.164083715E0,1.347351074E-2,-3.828430176E-1,4.353027344E-1
9.214083715E0,-2.736206055E-1,9.305114746E-1,1.158294678E-1
9.264083715E0,-4.721679688E-1,6.886138916E-1,-4.278411865E-1
9.314083715E0,-4.209899902E-2,8.630371094E-2,-1.926574707E-1
9.364083715E0,-2.131500244E-1,5.493316650E-1,-1.297454834E-1
9.414083715E0,5.195617676E-2,2.518463135E-1,1.280364990E-1
9.464083715E0,4.160461426E-1,3.459167480E-1,-1.123046875E-2
9.514083715E0,8.173828125E-1,3.315734863E-2,2.166137695E-1
9.564083715E0,4.893493652E-1,-8.900451660E-2,-1.187438965E-1
9.614083715E0,2.773742676E-1,-2.050781250E-1,-4.666137695E-2
9.664083715E0,2.813720703E-2,-1.873626709E-1,-6.315612793E-2
9.714083715E0,2.895965576E-1,8.712615967E-1,1.616363525E-1
9.764083715E0,4.951477051E-2,-2.704315186E-1,9.077453613E-2
9.814083715E0,2.264404297E-2,-7.860260010E-1,-2.812347412E-1
9.864083715E0,-4.324493408E-1,3.398132324E-1,1.433105469E-1
9.914083715E0,-8.059692383E-2,4.719543457E-2,1.341552734E-1
9.964083715E0,2.810363770E-1,-1.549835205E-1,4.298095703E-1
1.001408372E1,3.109741211E-1,-3.052673340E-1,2.447204590E-1
1.006408372E1,3.256225586E-1,-3.968963623E-1,1.262054443E-1
1.011408372E1,1.692504883E-1,1.058502197E-1,5.961608887E-2
1.016408372E1,3.485107422E-2,-1.519317627E-1,-1.535644531E-1
1.021408372E1,3.036346436E-1,7.835388184E-2,1.378173828E-1
1.026408372E1,-5.371093750E-2,-5.725097656E-2,-1.883850098E-1
1.031408372E1,-2.467498779E-1,2.337646484E-2,-7.809295654E-1
1.036408372E1,-2.907257080E-1,3.782958984E-1,1.017761230E-1
1.041408372E1,-4.275665283E-1,2.487792969E-1,-6.958007812E-3
1.046408372E1,1.063232422E-1,-3.052673340E-1,-4.971313477E-2
1.051408372E1,-8.514404297E-3,4.210510254E-1,2.630462646E-1
1.056408372E1,2.822570801E-1,-3.022003174E-1,6.484985352E-3
1.061408372E1,3.610687256E-1,-7.862854004E-2,2.373809814E-1
1.066408372E1,-2.561950684E-2,3.131103516E-2,-1.138610840E-1
1.071408372E1,8.118743896E-1,4.033355713E-1,5.104522705E-1
1.076408372E1,1.130523682E-1,8.456115723E-1,9.199523926E-2
1.081408372E1,-1.300659180E-1,-3.003845215E-1,-2.726745605E-1
1.086408372E1,-6.309814453E-1,8.567810059E-2,-1.957092285E-1
1.091408372E1,-4.831542969E-1,3.019409180E-1,2.599792480E-1
1.096408372E1,8.494567871E-2,-4.659271240E-1,2.526550293E-1
1.101408372E1,3.653411865E-1,-4.714965820E-3,4.682922363E-1
1.106408372E1,2.449951172E-1,-6.152343750E-2,3.518676758E-2
1.111408372E1,2.071228027E-1,-2.637329102E-1,8.955383301E-2
1.116408372E1,1.087646484E-1,-2.075195312E-1,-9.187316895E-2
1.121408372E1,2.187347412E-1,4.845886230E-1,9.872436523E-2
1.126408372E1,-4.171752930E-1,-2.734985352E-1,-3.258361816E-1
1.131408372E1,-3.237152100E-1,2.032470703E-2,-6.520385742E-1
1.136408372E1,-4.733886719E-1,2.219085693E-1,1.127624512E-1
1.141408372E1,-1.960449219E-1,2.581787109E-2,2.288360596E-1
1.146408372E1,2.468261719E-1,1.626586914E-1,2.166137695E-1
1.151408372E1,4.158020020E-2,-9.756469727E-2,1.958465576E-1
1.156408372E1,2.181091309E-1,-3.553466797E-1,-3.871154785E-2
1.161408372E1,1.469421387E-2,6.491088867E-2,1.219329834E-1
1.166408372E1,3.060760498E-1,3.193664551E-2,1.182708740E-1
1.171408372E1,4.789581299E-1,6.886138916E-1,3.290252686E-1
1.176408372E1,-2.467498779E-1,-1.663208008E-3,-2.201385498E-1
1.181408372E1,-2.070465088E-1,-7.817382812E-1,-5.591888428E-1
1.186408372E1,-3.450927734E-1,1.290588379E-1,3.762817383E-2
1.191408372E1,-6.566314697E-1,3.208618164E-1,1.946258545E-1
1.196408372E1,2.400970459E-1,-8.135070801E-1,2.508239746E-1
1.201408372E1,1.252746582E-1,9.484863281E-2,2.660980225E-1
1.206408372E1,4.221496582E-1,-2.533416748E-1,1.494140625E-1
1.211408372E1,2.004089355E-1,-1.568298340E-1,-8.544921875E-4
1.216408372E1,-1.190185547E-3,1.064453125E-1,-2.128143311E-1
1.221408372E1,3.543395996E-1,3.905181885E-1,2.850341797E-1
1.226408372E1,-5.075836182E-1,-1.739349365E-1,-8.291931152E-1
1.231408372E1,-3.945770264E-1,1.602020264E-1,-4.791564941E-1
1.236408372E1,-4.074096680E-1,5.371246338E-1,1.335296631E-1
1.241408372E1,-4.852294922E-3,-4.136657715E-2,1.512603760E-1
1.246408372E1,3.079223633E-1,-2.484436035E-1,2.722015381E-1
1.251408372E1,3.720550537E-1,-2.313385010E-1,3.213500977E-2
1.256408372E1,3.854980469E-1,-1.470489502E-1,1.573638916E-1
1.261408372E1,2.566070557E-1,-1.696472168E-1,-2.274780273E-1
1.266408372E1,2.614898682E-1,3.599700928E-1,7.122802734E-2
1.271408372E1,1.820678711E-1,1.267715454E0,4.041595459E-1
1.276408372E1,2.813720703E-2,-1.167816162E0,-4.009704590E-1
1.281408372E1,-2.656860352E-1,-2.624969482E-1,-9.490966797E-2
1.286408372E1,-5.668487549E-1,9.818267822E-1,1.555175781E-1
1.291408372E1,-1.679534912E-1,-1.812591553E-1,2.227172852E-1
1.296408372E1,2.969207764E-1,-6.216888428E-1,2.996978760E-1
1.301408372E1,1.161041260E-1,-1.549835205E-1,1.952362061E-1
1.306408372E1,2.950897217E-1,-1.782073975E-1,-3.382873535E-2
1.311408372E1,1.081695557E-1,-2.380676270E-1,-2.421417236E-1
1.316408372E1,-2.076568604E-1,-5.480957031E-2,-3.869171143E-1
1.321408372E1,-1.038055420E-1,-9.207153320E-2,-1.022491455E-1
1.326408372E1,-4.825439453E-1,-2.453918457E-1,-1.168212891E0
1.331408372E1,-1.374053955E-1,2.610015869E-1,-2.097625732E-1
1.336408372E1,-2.485809326E-1,-3.651275635E-1,-2.005920410E-1
1.341408372E1,-3.782653809E-2,2.420654297E-1,4.043579102E-3
1.346408372E1,7.333374023E-2,-3.494262695E-3,-2.115936279E-1
1.351408372E1,2.706451416E-1,-4.873046875E-1,-6.071472168E-2
1.356408372E1,-2.534637451E-1,-8.656311035E-2,-3.166656494E-1
1.361408372E1,2.352142334E-1,2.628326416E-1,9.536743164E-3
1.366408372E1,2.523193359E-1,4.864196777E-1,3.283996582E-1
1.371408372E1,8.372497559E-2,8.327789307E-1,3.760528564E-1
1.376408372E1,-2.561950684E-2,-6.522369385E-1,-5.032348633E-2
1.381408372E1,-2.388000488E-1,-2.062988281E-1,1.542968750E-1
1.386408372E1,-4.348907471E-1,4.204406738E-1,3.058013916E-1
1.391408372E1,5.990600586E-2,-6.579589844E-2,3.152465820E-2
1.396408372E1,2.559814453E-1,-1.458282471E-1,3.565063477E-1
1.401408372E1,4.463195801E-2,-3.770446777E-2,4.129028320E-2
1.406408372E1,2.248382568E-1,-3.211517334E-1,-3.260803223E-2
1.411408372E1,-3.477478027E-2,-2.826538086E-1,-8.758544922E-2
1.416408372E1,1.713562012E-2,2.854309082E-1,2.052307129E-2
1.421408372E1,-3.854064941E-1,-4.023895264E-1,-1.071319580E-1
1.426408372E1,-3.072204590E-1,1.076660156E-1,-7.968139648E-1
1.431408372E1,-3.066101074E-1,2.933807373E-1,3.213500977E-2
1.436408372E1,8.494567871E-2,-1.782073975E-1,1.262054443E-1
1.441408372E1,2.223968506E-1,4.076232910E-1,2.208862305E-1
1.446408372E1,1.252746582E-1,-2.234039307E-1,4.069519043E-2
1.451408372E1,3.445739746E-1,-7.139434814E-1,3.030395508E-2
1.456408372E1,-2.317810059E-2,1.938171387E-1,1.060485840E-1
1.461408372E1,3.030242920E-1,1.400604248E-1,2.465515137E-1
1.466408372E1,2.950897217E-1,1.241760254E-1,1.573638916E-1
1.471408372E1,2.325439453E-2,4.583129883E-1,-8.209228516E-2
1.476408372E1,6.539916992E-2,6.085968018E-1,-5.215454102E-2
1.481408372E1,-4.568786621E-1,-4.701995850E-1,-5.398559570E-2
1.486408372E1,-4.760742188E-2,-2.386779785E-1,3.522338867E-1
1.491408372E1,3.546142578E-2,5.749816895E-1,4.389648438E-1
1.496408372E1,2.828674316E-1,-2.704315186E-1,2.526550293E-1
1.501408372E1,1.851348877E-1,-3.095397949E-1,2.784729004E-2
1.506408372E1,-7.203674316E-2,-2.710571289E-1,-3.429260254E-1
1.511408372E1,3.048553467E-1,8.384704590E-2,3.152465820E-2
1.516408372E1,-1.044158936E-1,2.915496826E-1,-1.291198730E-1
1.521408372E1,-2.284240723E-1,1.791534424E-1,2.728118896E-1
1.526408372E1,-8.258514404E-1,-6.253662109E-1,-7.473297119E-1
1.531408372E1,7.945251465E-2,5.597229004E-1,1.799621582E-1
1.536408372E1,-3.163909912E-1,8.445739746E-2,1.625061035E-2
1.541408372E1,1.106109619E-1,-2.863159180E-1,-5.644226074E-2
1.546408372E1,-2.504119873E-1,3.428649902E-1,-4.177856445E-2
1.551408372E1,1.802368164E-1,-2.264556885E-1,1.036071777E-1
1.556408372E1,1.784057617E-1,-1.128387451E-1,6.695556641E-2
1.561408372E1,4.563598633E-1,1.788330078E-2,1.958465576E-1
1.566408372E1,4.936218262E-1,-8.987426758E-3,-5.737304688E-3
1.571408372E1,3.744964600E-1,5.756072998E-1,3.326873779E-1
1.576408372E1,3.323516846E-1,-7.481536865E-1,-6.685333252E-1
1.581408372E1,1.710815430E-1,8.950805664E-1,-2.293090820E-1
1.586408372E1,-1.007537842E-1,-4.494323730E-1,-6.734161377E-1
1.591408372E1,-3.294372559E-2,2.695465088E-1,-4.168548584E-1
1.596408372E1,-1.215209961E-1,-4.197692871E-2,-6.269836426E-1
1.601408372E1,1.051025391E-1,-4.518737793E-1,-1.033828735E0
1.606408372E1,-1.795501709E-1,-1.861419678E-1,-1.494415283E0
1.611408372E1,4.154205322E-1,-3.431396484E-1,-1.783966064E0
1.616408372E1,4.991149902E-1,-9.146118164E-2,-2.335586548E0
1.621408372E1,2.572021484E-1,4.845886230E-1,-2.332534790E0
1.626408372E1,4.404754639E-1,6.049346924E-1,-2.638580322E0
1.631408372E1,-7.569885254E-2,1.264053345E0,-2.539016724E0
1.636408372E1,-1.416778564E-1,-3.553466797E-1,-3.128494263E0
1.641408372E1,5.748596191E-1,1.620483398E-1,-1.999008179E0
1.646408372E1,5.962524414E-1,-3.510742188E-1,-2.824279785E0
1.651408372E1,3.744964600E-1,-1.350463867E0,-3.355743408E0
1.656408372E1,7.945251465E-2,-8.739776611E-1,-3.510299683E0
1.661408372E1,-2.137603760E-1,-1.043182373E0,-3.610473633E0
1.666408372E1,1.429748535E-1,-9.411773682E-1,-3.596435547E0
1.671408372E1,-1.764984131E-1,-1.488800049E-1,-3.598251343E0
1.676408372E1,-1.013641357E-1,5.331420898E-2,-3.295883179E0
1.681408372E1,2.095642090E-1,-1.281127930E-1,-2.987380981E0
1.686408372E1,4.402160645E-2,-1.891937256E-1,-2.572006226E0
1.691408372E1,1.042175293E-2,1.742706299E-1,-1.857894897E0
1.696408372E1,-1.484069824E-1,5.389556885E-1,-1.334976196E0
1.701408372E1,5.455322266E-1,6.654052734E-1,-6.300354004E-1
1.706408372E1,4.129791260E-1,-9.020843506E-1,-5.115356445E-1
1.711408372E1,7.495727539E-1,-8.849792480E-1,-4.522857666E-1
1.716408372E1,-9.097290039E-2,-1.152801514E-1,-5.622253418E-1
1.721408372E1,-9.463500977E-2,2.707824707E-1,-6.526489258E-1
1.726408372E1,-4.760742188E-2,3.104858398E-1,-4.076843262E-1
1.731408372E1,-1.771087646E-1,1.971435547E-2,-4.883117676E-1
1.736408372E1,2.569580078E-2,-1.305541992E-1,-2.244262695E-1
1.741408372E1,1.338195801E-1,5.880737305E-2,-1.999816895E-1
1.746408372E1,2.877502441E-1,-3.709411621E-2,-3.044433594E-1
1.751408372E1,1.942901611E-1,1.217346191E-1,-1.499023438E-1
1.756408372E1,3.708343506E-1,-4.347686768E-1,-3.618774414E-1
1.761408372E1,1.784057617E-1,-9.022521973E-2,-1.749420166E-1
1.766408372E1,-2.039794922E-1,1.284484863E-1,-4.669342041E-1
1.771408372E1,3.176879883E-1,-5.847167969E-2,1.897430420E-1
1.776408372E1,1.118316650E-1,-3.132019043E-1,-1.156768799E-1
1.781408372E1,-9.646606445E-2,-4.197692871E-2,-7.170104980E-2
1.786408372E1,1.436004639E-1,1.180572510E-1,-1.987609863E-1
1.791408372E1,2.935791016E-2,2.481842041E-1,5.290222168E-2
1.796408372E1,2.144470215E-1,1.034088135E-1,-7.598876953E-2
1.801408372E1,2.682037354E-1,-5.786132812E-2,1.199340820E-2
1.806408372E1,2.449951172E-1,2.093505859E-2,8.039855957E-2
1.811408372E1,3.079223633E-1,2.897186279E-1,1.176452637E-1
1.816408372E1,-5.363006592E-1,-1.039520264E0,-4.571685791E-1
1.821408372E1,2.504882812E-1,7.808532715E-1,1.097106934E-1
1.826408372E1,-5.760040283E-1,-3.648376465E-2,2.196655273E-1
1.831408372E1,-2.255249023E-2,-4.756927490E-1,1.836242676E-1
1.836408372E1,-8.486938477E-2,3.831787109E-1,3.180236816E-1
1.841408372E1,7.762145996E-2,-1.940765381E-1,1.036071777E-1
1.846408372E1,1.674194336E-1,-2.808380127E-1,1.677398682E-1
1.851408372E1,1.497039795E-1,-5.603027344E-2,-9.431457520E-2
1.856408372E1,2.987518311E-1,-4.274291992E-1,-1.489257812E-2
1.861408372E1,8.311462402E-2,1.070709229E-1,-2.751159668E-1
1.866408372E1,-2.928161621E-2,-1.385040283E-1,-1.217956543E-1
1.871408372E1,-1.374053955E-1,-4.930114746E-2,-7.497711182E-1
1.876408372E1,-1.746673584E-1,2.341308594E-1,6.878662109E-2
1.881408372E1,-4.150390625E-2,-9.695434570E-2,-1.376800537E-1
1.886408372E1,3.057861328E-2,7.643737793E-1,-2.589416504E-2
1.891408372E1,2.935791016E-2,-4.136657715E-2,-5.581665039E-2
1.896408372E1,3.152465820E-1,-5.288391113E-1,3.518676758E-2
1.901408372E1,5.439758301E-2,3.074340820E-1,1.170501709E-1
1.906408372E1,3.402862549E-1,8.728027344E-3,1.964569092E-1
1.911408372E1,2.651519775E-1,1.858673096E-1,2.838134766E-1
1.916408372E1,1.044921875E-1,3.092651367E-1,2.221069336E-1
1.921408372E1,3.470153809E-1,-4.685974121E-2,-3.260803223E-2
1.926408372E1,-5.228576660E-1,1.986999512E-1,1.598052979E-1
1.931408372E1,-1.862792969E-1,-1.659851074E-1,-3.138732910E-2
1.936408372E1,-2.614135742E-1,4.289855957E-1,1.158294678E-1
1.941408372E1,-4.272460938E-2,1.015625000E-1,5.778503418E-2
1.946408372E1,1.356506348E-1,-3.748931885E-1,2.105102539E-1
1.951408372E1,-9.524536133E-2,5.085754395E-2,-1.095733643E-1
1.956408372E1,2.755279541E-1,-2.484436035E-1,3.762817383E-2
1.961408372E1,-5.493164062E-2,3.987121582E-2,-2.036590576E-1
1.966408372E1,-1.380004883E-1,4.326477051E-1,-9.399414062E-3
1.971408372E1,-3.389892578E-1,-5.129547119E-1,-7.705383301E-1
1.976408372E1,-2.229156494E-1,2.188568115E-1,-7.536315918E-2
1.981408372E1,-2.143707275E-1,-1.140594482E-1,-2.543487549E-1
1.986408372E1,1.469421387E-2,1.913757324E-1,3.814697266E-4
1.991408372E1,-1.868743896E-1,2.781066895E-1,-7.048034668E-2
1.996408372E1,2.859344482E-1,-4.640808105E-1,9.199523926E-2
2.001408372E1,7.884216309E-2,6.674194336E-2,2.969360352E-2
2.006408372E1,3.500671387E-1,-1.571655273E-2,1.268157959E-1
2.011408372E1,2.883758545E-1,1.479949951E-1,1.506347656E-1
2.016408372E1,5.378723145E-2,5.145111084E-1,1.103210449E-1
2.021408372E1,-9.463500977E-2,-7.322692871E-1,-2.500762939E-1
2.026408372E1,-3.487548828E-1,6.397399902E-1,1.769104004E-1
2.031408372E1,-3.585357666E-1,-4.818115234E-1,-6.376647949E-2
2.036408372E1,-2.317810059E-2,1.498260498E-1,2.575378418E-1
2.041408372E1,3.546142578E-2,-1.158905029E-1,1.011657715E-1
2.046408372E1,4.667358398E-1,-2.954864502E-1,1.720275879E-1
2.051408372E1,-7.081604004E-2,4.170227051E-2,-1.553955078E-1
2.056408372E1,3.048553467E-1,-1.244354248E-1,5.351257324E-2
2.061408372E1,-9.709167480E-2,-1.720886230E-1,-3.276519775E-1
2.066408372E1,3.030242920E-1,2.884979248E-1,-9.399414062E-3
2.071408372E1,-9.064941406E-1,2.764892578E-2,-8.914947510E-1
2.076408372E1,6.967163086E-2,-3.526306152E-2,-1.230163574E-1
2.081408372E1,-2.772979736E-1,6.674194336E-2,5.961608887E-2
2.086408372E1,3.546142578E-2,5.026245117E-2,1.258850098E-2
2.091408372E1,6.408691406E-4,2.744445801E-1,4.191589355E-2
2.096408372E1,2.749328613E-1,-3.474121094E-1,2.822875977E-3
2.101408372E1,-2.072143555E-2,-3.156433105E-1,-5.398559570E-2
2.106408372E1,1.576385498E-1,2.457275391E-1,7.672119141E-2
2.111408372E1,2.621002197E-1,-7.984924316E-2,1.182708740E-1
2.116408372E1,1.997833252E-1,3.434753418E-1,1.280364990E-1
2.121408372E1,-2.439880371E-2,-2.227935791E-1,-3.264312744E-1
2.126408372E1,-1.813812256E-1,5.560607910E-1,6.756591797E-2
2.131408372E1,-1.728363037E-1,-7.988433838E-1,-9.124755859E-2
2.136408372E1,4.341125488E-2,2.371826172E-1,3.962097168E-1
2.141408372E1,-2.561950684E-2,2.530670166E-1,1.286468506E-1
2.146408372E1,4.056549072E-1,-4.445343018E-1,1.714019775E-1
2.151408372E1,-1.034545898E-2,-1.611022949E-1,-1.547851562E-1
2.156408372E1,2.596588135E-1,-2.105712891E-1,4.043579102E-3
2.161408372E1,-7.569885254E-2,-1.507110596E-1,-2.464141846E-1
2.166408372E1,-1.410675049E-1,2.408447266E-1,2.236938477E-2
2.171408372E1,-8.386840820E-1,-1.733093262E-1,-4.987030029E-1
2.176408372E1,1.777954102E-1,4.760284424E-1,2.691497803E-1
2.181408372E1,-1.288452148E-1,-1.140594482E-1,-5.766296387E-2
2.186408372E1,-8.609008789E-2,3.074340820E-1,-1.975402832E-1
2.191408372E1,2.813720703E-2,2.292327881E-1,-2.711486816E-2
2.196408372E1,1.887969971E-1,-3.138122559E-1,1.750793457E-1
2.201408372E1,2.018737793E-2,-1.256561279E-1,4.435729980E-2
2.206408372E1,6.845092773E-2,-9.695434570E-2,1.164245605E-1
2.211408372E1,2.162780762E-1,2.451171875E-1,1.579742432E-1
2.216408372E1,3.176879883E-1,3.636322021E-1,2.386016846E-1
2.221408372E1,-4.086303711E-1,-9.136962891E-1,-2.861175537E-1
2.226408372E1,3.793945312E-1,1.073471069E0,2.709808350E-1
2.231408372E1,-5.320281982E-1,-3.645172119E-1,-3.016662598E-2
2.236408372E1,1.686401367E-1,-8.342742920E-1,-1.062011719E-2
2.241408372E1,-2.021484375E-1,6.819000244E-1,1.750793457E-1
2.246408372E1,5.012512207E-2,-1.574249268E-1,6.634521484E-2
2.251408372E1,2.230072021E-1,-6.888885498E-1,3.213500977E-2
2.256408372E1,-7.814025879E-2,-2.182006836E-2,-7.965087891E-2
2.261408372E1,1.887969971E-1,-3.284759521E-1,-4.910278320E-2
2.266408372E1,8.311462402E-2,4.668731689E-1,-1.126403809E-1
2.271408372E1,-4.617614746E-1,-3.376312256E-1,-3.661499023E-1
2.276408372E1,2.691650391E-2,3.159790039E-1,-4.901580811E-1
2.281408372E1,5.073547363E-2,5.548400879E-1,1.579742432E-1
2.286408372E1,4.577636719E-5,-2.679901123E-1,-8.026123047E-2
2.291408372E1,-3.965759277E-2,1.889190674E-1,-2.955627441E-2
2.296408372E1,-2.621459961E-2,-8.474731445E-2,8.222961426E-2
2.301408372E1,1.490936279E-1,-3.070983887E-1,9.687805176E-2
2.306408372E1,1.161041260E-1,1.727294922E-2,1.427001953E-1
2.311408372E1,3.360137939E-1,-1.378784180E-1,2.312774658E-1
2.316408372E1,3.525085449E-1,2.463378906E-1,2.575378418E-1
2.321408372E1,-1.477813721E-1,-9.430084229E-1,-2.341918945E-1
2.326408372E1,5.064392090E-1,4.784851074E-1,1.359710693E-1
2.331408372E1,-6.315917969E-1,1.037414551E0,2.236938477E-2
2.336408372E1,2.346191406E-1,-8.947448730E-1,6.390380859E-2
2.341408372E1,-2.333068848E-1,2.280120850E-1,3.009185791E-1
2.346408372E1,-1.972656250E-1,3.685150146E-1,1.756896973E-1
2.351408372E1,1.747436523E-1,-3.113708496E-1,1.659240723E-1
2.356408372E1,-1.703948975E-1,-5.603027344E-2,4.801940918E-2
2.361408372E1,1.521453857E-1,-5.508270264E-1,2.212524414E-3
2.366408372E1,1.411437988E-1,-1.006164551E-1,-1.590576172E-1
2.371408372E1,2.321624756E-1,2.310791016E-1,-7.210693359E-1
2.376408372E1,-5.554199219E-2,-8.656311035E-2,-5.671234131E-1
2.381408372E1,-3.538513184E-2,6.085968018E-1,-6.581420898E-1
2.386408372E1,-2.259826660E-1,1.211090088E-1,-2.317504883E-1
2.391408372E1,-2.241516113E-1,1.076660156E-1,-4.198913574E-1
2.396408372E1,-9.219360352E-2,6.674194336E-2,-8.544921875E-4
2.401408372E1,-1.880950928E-1,-4.048309326E-1,-1.199645996E-1
2.406408372E1,9.472656250E-2,-1.213989258E-1,-7.476806641E-2
2.411408372E1,-1.068572998E-1,1.678466797E-4,6.634521484E-2
2.416408372E1,-2.479705811E-1,-2.276763916E-1,6.329345703E-2
2.421408372E1,2.095642090E-1,-5.175781250E-2,1.640777588E-1
2.426408372E1,3.195190430E-1,2.500000000E-1,1.946258545E-1
2.431408372E1,1.093902588E-1,3.829956055E-3,2.783050537E-1
2.436408372E1,7.333374023E-2,2.555084229E-1,2.013397217E-1
2.441408372E1,4.302978516E-3,5.050659180E-3,3.375701904E-1
2.446408372E1,-5.737304688E-2,2.506256104E-1,1.860656738E-1
2.451408372E1,-1.514434814E-1,7.934570312E-4,1.109313965E-1
2.456408372E1,1.038818359E-1,-5.908203125E-2,-7.354736328E-2
2.461408372E1,2.938690186E-1,2.457275391E-1,-2.653503418E-1
2.466408372E1,2.266693115E-1,-5.175781250E-2,-4.483032227E-2
2.471408372E1,-2.235260010E-1,-7.374572754E-2,-9.919738770E-2
2.476408372E1,-2.791137695E-1,1.571655273E-1,7.978820801E-2
2.481408372E1,-1.160125732E-1,1.849365234E-2,1.869201660E-2
2.486408372E1,-1.233520508E-1,1.076660156E-1,1.869201660E-2
2.491408372E1,-6.410217285E-2,1.040039062E-1,-2.467346191E-2
2.496408372E1,-1.800537109E-3,5.941772461E-2,-1.492919922E-1
2.501408372E1,-3.660583496E-2,-1.165008545E-1,-6.986999512E-2
2.506408372E1,1.469421387E-2,-1.739349365E-1,-9.309387207E-2
2.511408372E1,-6.410217285E-2,-3.587341309E-2,-7.658386230E-2
2.516408372E1,1.652526855E-2,-6.091308594E-2,-2.075195312E-3
2.521408372E1,3.974914551E-2,3.315734863E-2,-1.672363281E-2
2.526408372E1,3.974914551E-2,1.693725586E-1,-3.295898438E-3
2.531408372E1,-7.904052734E-3,1.284484863E-1,-2.670288086E-3
2.536408372E1,6.723022461E-2,-1.142883301E-2,-3.260803223E-2
2.541408372E1,-6.042480469E-2,-1.509094238E-2,-9.368896484E-2
2.546408372E1,-1.950073242E-2,-1.378784180E-1,-7.843017578E-2
2.551408372E1,-1.280212402E-2,1.605224609E-2,8.222961426E-2
2.556408372E1,9.838867188E-2,1.693725586E-1,9.321594238E-2
2.561408372E1,-5.798339844E-2,-1.891937256E-1,1.384124756E-1
