"Time (s)","Acceleration x (m/s^2)","Acceleration y (m/s^2)","Acceleration z (m/s^2)"
7.070664800E-2,-5.264282227E-2,1.284942627E0,1.000679016E1
1.207066480E-1,-3.278198242E-1,1.347152710E0,1.026281738E1
1.707066480E-1,-1.986083984E-1,1.304092407E0,1.023649597E1
2.207066480E-1,6.197357178E-1,1.184448242E0,9.985244751E0
2.707066480E-1,-4.355010986E-1,1.674972534E0,1.039920044E1
3.207066480E-1,1.045669556E0,1.148559570E0,9.020935059E0
3.707066480E-1,-5.742797852E-1,1.244262695E0,1.099023438E1
4.207066480E-1,7.441711426E-1,5.096740723E-1,8.377273560E0
4.707066480E-1,-1.340026855E-1,2.146362305E0,1.010728455E1
5.207066480E-1,8.925170898E-1,5.766754150E-1,9.887145996E0
5.707066480E-1,6.700134277E-2,9.379882812E-1,1.047578430E1
6.207066480E-1,1.088729858E0,1.196441650E-1,9.705291748E0
6.707066480E-1,4.737854004E-1,9.284210205E-1,1.048295593E1
7.207066480E-1,3.325958252E-1,0.000000000E0,1.008575439E1
7.707066480E-1,7.322082520E-1,9.571228027E-1,1.010968018E1
8.207066480E-1,-1.483612061E-1,5.790557861E-1,9.879959106E0
8.707066480E-1,1.842498779E-1,7.346038818E-1,1.013600159E1
9.207066480E-1,1.268157959E-1,7.776641846E-1,9.800994873E0
9.707066480E-1,1.411743164E-1,6.364898682E-1,9.934997559E0
1.020706648E0,2.608184814E-1,9.355926514E-1,9.492324829E0
1.070706648E0,7.656860352E-2,8.614196777E-1,1.023410034E1
1.120706648E0,2.943115234E-1,9.260253906E-1,9.789031982E0
1.170706648E0,-2.321014404E-1,1.344772339E0,9.312866211E0
1.220706648E0,-1.579284668E-1,1.270584106E0,1.001156616E1
1.270706648E0,-1.483612061E-1,1.265808105E0,1.002592468E1
1.320706648E0,1.746826172E-1,1.694122314E0,1.045184326E1
1.370706648E0,3.541412354E-1,1.000198364E0,9.891921997E0
1.420706648E0,3.111267090E-2,1.409378052E0,9.171691895E0
1.470706648E0,6.029968262E-1,1.883148193E0,9.351150513E0
1.520706648E0,1.794586182E-1,1.505081177E0,1.065763855E1
1.570706648E0,1.674957275E-1,2.110473633E0,1.055712891E1
1.620706648E0,-6.436767578E-1,1.550552368E0,1.025802612E1
1.670706648E0,-1.198806763E0,1.854431152E0,1.003549194E1
1.720706648E0,-2.632141113E-1,1.210769653E0,1.035134888E1
1.770706648E0,-5.024871826E-1,7.800598145E-1,1.127020264E1
1.820706648E0,-6.197357178E-1,1.055236816E0,1.096630859E1
1.870706648E0,-6.484527588E-1,-3.421783447E-1,1.240678406E1
1.920706648E0,-1.890258789E-1,-5.264282227E-2,1.036810303E1
1.970706648E0,-9.571838379E-2,-2.991027832E-1,9.396621704E0
2.020706648E0,-1.124572754E-1,1.698913574E-1,8.394027710E0
2.070706648E0,1.196441650E-1,2.488555908E-1,8.367706299E0
2.120706648E0,-9.523468018E-1,8.470611572E-1,8.092529297E0
2.170706648E0,-1.818542480E-1,8.805541992E-1,9.042480469E0
2.220706648E0,-5.335998535E-1,1.031311035E0,1.022453308E1
2.270706648E0,3.708801270E-1,1.658233643E0,1.062173462E1
2.320706648E0,-6.388854980E-1,1.416549683E0,1.159800720E1
2.370706648E0,-1.411743164E-1,4.642028809E-1,1.265084839E1
2.420706648E0,-4.546356201E-1,2.010040283E-1,1.115533447E1
2.470706648E0,-9.260253906E-1,-7.034912109E-1,1.176312256E1
2.520706648E0,-9.427795410E-1,-1.095916748E0,9.059234619E0
2.570706648E0,-8.111724854E-1,-4.307556152E-2,8.563919067E0
2.620706648E0,-4.929199219E-1,-5.359954834E-1,7.975280762E0
2.670706648E0,1.100769043E-1,1.387786865E-1,7.903488159E0
2.720706648E0,-4.881286621E-1,5.934143066E-1,8.717056274E0
2.770706648E0,-3.972015381E-1,8.877410889E-1,9.698104858E0
2.820706648E0,-2.225341797E-1,3.254241943E-1,1.069830322E1
2.870706648E0,3.111267090E-2,6.986999512E-1,1.217468262E1
2.920706648E0,-6.700134277E-2,1.459655762E-1,1.149272156E1
2.970706648E0,1.986083984E-1,1.986083984E-1,1.205982971E1
3.020706648E0,-4.091796875E-1,-1.239486694E0,1.072224426E1
3.070706648E0,4.139556885E-1,-9.260253906E-1,1.045663452E1
3.120706648E0,3.086700439E-1,-7.130584717E-1,8.451446533E0
3.170706648E0,-2.177429199E-1,6.532440186E-1,7.432113647E0
3.220706648E0,-1.746826172E-1,6.269226074E-1,7.941772461E0
3.270706648E0,1.770629883E-1,7.106628418E-1,9.075973511E0
3.320706648E0,7.489471436E-1,1.127014160E0,1.131565857E1
3.370706648E0,4.785614014E-1,7.441711426E-1,1.210289001E1
3.420706648E0,3.661041260E-1,5.024871826E-1,1.215075684E1
3.470706648E0,1.411743164E-1,-3.565368652E-1,1.201675415E1
3.520706648E0,-5.790557861E-1,-9.260253906E-1,1.083709717E1
3.570706648E0,-2.536315918E-1,-4.809570312E-1,8.599807739E0
3.620706648E0,-6.723785400E-1,-3.254241943E-1,8.341384888E0
3.670706648E0,7.896423340E-2,3.086700439E-1,8.106887817E0
3.720706648E0,-1.100769043E-1,6.676025391E-1,7.865203857E0
3.770706648E0,-2.871704102E-2,1.103088379E0,8.901306152E0
3.820706648E0,-1.579284668E-1,4.929199219E-1,1.086102295E1
3.870706648E0,-7.171630859E-3,-1.770629883E-1,1.180378723E1
3.920706648E0,-4.953155518E-1,-3.517456055E-1,1.299063110E1
3.970706648E0,5.264282227E-1,-1.100769043E-1,1.079881287E1
4.020706648E0,-3.613128662E-1,-1.385437012E0,1.310548401E1
4.070706648E0,1.818542480E-1,-1.395019531E0,9.372680664E0
4.120706648E0,5.264282227E-2,1.196289062E-2,8.946762085E0
4.170706648E0,-3.110656738E-1,7.106628418E-1,6.709472656E0
4.220706648E0,-2.440643311E-1,1.143768311E0,7.910675049E0
4.270706648E0,1.268157959E-1,7.202453613E-1,8.717056274E0
4.320706648E0,8.087768555E-1,1.021728516E0,1.066720581E1
4.370706648E0,-1.531372070E-1,5.742797852E-1,1.265563965E1
4.420706648E0,4.953155518E-1,2.297058105E-1,1.279920959E1
4.470706648E0,-4.043884277E-1,-9.547424316E-1,1.287817383E1
4.520706648E0,-6.006011963E-1,-8.805541992E-1,1.010488892E1
4.570706648E0,-3.828582764E-1,-9.044799805E-1,9.437286377E0
4.620706648E0,-1.842498779E-1,-3.661041260E-1,7.544570923E0
4.670706648E0,-2.225341797E-1,7.393798828E-1,6.568298340E0
4.720706648E0,-1.483612061E-1,6.149597168E-1,7.415359497E0
4.770706648E0,3.421783447E-1,9.331970215E-1,9.140579224E0
4.820706648E0,7.177734375E-2,1.411743164E-1,1.154058838E1
4.870706648E0,-4.187469482E-1,-4.791259766E-3,1.283032227E1
4.920706648E0,-1.340026855E-1,-5.216369629E-1,1.262452698E1
4.970706648E0,1.136596680E0,-7.992095947E-1,1.161476135E1
5.020706648E0,3.637084961E-1,-1.330413818E0,1.135154724E1
5.070706648E0,1.665405273E0,-7.585296631E-1,8.398803711E0
5.120706648E0,5.982055664E-1,-1.196441650E-1,8.310272217E0
5.170706648E0,1.890258789E-1,3.493499756E-1,7.099502563E0
5.220706648E0,-5.575256348E-1,3.278198242E-1,8.097305298E0
5.270706648E0,3.972015381E-1,6.819610596E-1,8.970687866E0
5.320706648E0,3.661041260E-1,4.211425781E-1,1.109552002E1
5.370706648E0,9.858398438E-1,-6.221008301E-2,1.245463562E1
5.420706648E0,-1.148529053E-1,-6.986999512E-1,1.292842102E1
5.470706648E0,-6.867370605E-1,-2.464614868E0,1.478047180E1
5.520706648E0,-1.177261353E0,-2.390426636E0,1.043750000E1
5.570706648E0,-4.067993164E-2,-9.331970215E-1,7.546966553E0
5.620706648E0,-3.972015381E-1,-5.001068115E-1,6.305084229E0
5.670706648E0,-5.647125244E-1,7.171630859E-3,7.800598145E0
5.720706648E0,4.211425781E-1,6.245269775E-1,7.680953979E0
5.770706648E0,1.009765625E0,3.445739746E-1,9.528213501E0
5.820706648E0,7.824554443E-1,-2.392883301E-1,1.173440552E1
5.870706648E0,2.823486328E-1,-5.144500732E-1,1.264846802E1
5.920706648E0,3.780670166E-1,-8.470611572E-1,1.295234680E1
5.970706648E0,2.943115234E-1,-1.808975220E0,1.593141174E1
6.020706648E0,1.842498779E-1,-1.277770996E0,9.198013306E0
6.070706648E0,7.489471436E-1,-4.187469482E-1,5.740386963E0
6.120706648E0,2.321014404E-1,-5.264282227E-1,7.010971069E0
6.170706648E0,-1.890258789E-1,1.674957275E-1,6.762115479E0
6.220706648E0,-9.332275391E-2,6.221008301E-2,8.889343262E0
6.270706648E0,9.714813232E-1,3.589172363E-1,9.879959106E0
6.320706648E0,7.800598145E-1,1.148529053E-1,1.287098694E1
6.370706648E0,9.762725830E-1,-4.809570312E-1,1.395014954E1
6.420706648E0,5.670928955E-1,-1.098312378E0,1.188514709E1
6.470706648E0,-9.690856934E-1,-1.895111084E0,1.266043091E1
6.520706648E0,-8.973083496E-1,-1.576873779E0,8.970687866E0
6.570706648E0,-4.474639893E-1,-1.100692749E0,8.039886475E0
6.620706648E0,5.743408203E-2,-2.679901123E-1,7.747955322E0
6.670706648E0,-1.411743164E-1,1.962127686E-1,7.159332275E0
6.720706648E0,1.674957275E-1,6.029968262E-1,7.530212402E0
6.770706648E0,-2.153015137E-2,3.206329346E-1,1.091366577E1
6.820706648E0,-2.847442627E-1,-1.555328369E-1,1.229432678E1
6.870706648E0,0.000000000E0,-6.891326904E-1,1.336630249E1
6.920706648E0,9.403839111E-1,-9.667053223E-1,1.168415833E1
6.970706648E0,-3.038940430E-1,-1.505081177E0,1.264607239E1
7.020706648E0,4.019927979E-1,-1.488342285E0,7.831710815E0
7.070706648E0,5.168457031E-1,-5.264282227E-1,8.994613647E0
7.120706648E0,4.307556152E-2,-4.067993164E-2,8.044662476E0
7.170706648E0,-4.642028809E-1,8.638153076E-1,7.274185181E0
7.220706648E0,-7.171630859E-3,6.795654297E-1,8.226531982E0
7.270706648E0,8.111724854E-1,4.809570312E-1,1.163151550E1
7.320706648E0,1.734802246E0,1.052856445E-1,1.235174561E1
7.370706648E0,1.371093750E0,-7.776641846E-1,1.354815674E1
7.420706648E0,6.628112793E-1,-2.249298096E-1,1.068634033E1
7.470706648E0,-1.253845215E0,-1.301696777E0,1.150230408E1
7.520706648E0,-1.158126831E0,-6.819610596E-1,8.190628052E0
7.570706648E0,-6.125640869E-1,-5.359954834E-1,9.267395020E0
7.620706648E0,-2.010040283E-1,1.818542480E-1,7.202392578E0
7.670706648E0,-8.997039795E-1,3.278198242E-1,7.353149414E0
7.720706648E0,-4.187469482E-1,9.978027344E-1,8.298309326E0
7.770706648E0,-2.249298096E-1,3.086700439E-1,1.088973999E1
7.820706648E0,5.479583740E-1,9.092712402E-2,1.247618103E1
7.870706648E0,3.972015381E-1,-4.331054688E-1,1.325863647E1
7.920706648E0,1.158126831E0,-3.445739746E-1,1.185882568E1
7.970706648E0,-7.680969238E-1,-1.567306519E0,1.287817383E1
8.020706648E0,3.684997559E-1,-5.479583740E-1,6.979858398E0
8.070706648E0,-2.656097412E-1,0.000000000E0,8.492126465E0
8.120706648E0,-3.230285645E-1,3.972015381E-1,6.747756958E0
8.170706648E0,-9.451599121E-1,5.647125244E-1,7.183258057E0
8.220706648E0,1.866455078E-1,6.532440186E-1,9.288940430E0
8.270706648E0,8.087768555E-1,5.383911133E-1,1.235893250E1
8.320706648E0,8.638153076E-1,2.871398926E-1,1.361276245E1
8.370706648E0,9.882354736E-1,6.006011963E-1,1.229910278E1
8.420706648E0,3.230285645E-1,-8.494567871E-1,1.265084839E1
8.470706648E0,-8.997039795E-1,-5.120697021E-1,9.650253296E0
8.520706648E0,-7.728881836E-1,-5.144500732E-1,8.946762085E0
8.570706648E0,1.555328369E-1,-1.316070557E-1,8.611770630E0
8.620706648E0,5.048828125E-1,9.284210205E-1,7.561325073E0
8.670706648E0,-5.599212646E-1,9.930267334E-1,7.082748413E0
8.720706648E0,2.919311523E-1,1.244262695E0,8.898910522E0
8.770706648E0,-1.196289062E-2,5.024719238E-2,1.150708008E1
8.820706648E0,9.978027344E-1,-2.823486328E-1,1.284466553E1
8.870706648E0,-1.675415039E-2,-6.221008301E-2,1.245463562E1
8.920706648E0,1.332809448E0,-2.344970703E-1,1.154536438E1
8.970706648E0,-2.703857422E-1,-1.182052612E0,1.075813293E1
9.020706648E0,4.857482910E-1,-8.111724854E-1,9.556930542E0
9.070706648E0,3.086700439E-1,2.799530029E-1,7.989639282E0
9.120706648E0,-1.675415039E-2,7.369842529E-1,6.417556763E0
9.170706648E0,-3.828582764E-1,8.327026367E-1,7.597213745E0
9.220706648E0,1.165298462E0,1.507476807E0,9.164505005E0
9.270706648E0,4.570312500E-1,6.101684570E-1,1.229672241E1
9.320706648E0,1.643875122E0,7.561340332E-1,1.321795654E1
9.370706648E0,-2.991027832E-1,4.091796875E-1,1.206460571E1
9.420706648E0,3.349914551E-1,-4.785156250E-2,1.311506653E1
9.470706648E0,-5.096740723E-1,-8.159484863E-1,9.640686035E0
9.520706648E0,-1.435852051E-2,-5.670928955E-1,8.819946289E0
9.570706648E0,4.929199219E-1,1.435852051E-2,8.252853394E0
9.620706648E0,-3.684997559E-1,5.670928955E-1,7.247863770E0
9.670706648E0,2.153015137E-2,1.055236816E0,7.448852539E0
9.720706648E0,2.656097412E-1,7.106628418E-1,9.798614502E0
9.770706648E0,5.024719238E-2,3.661041260E-1,1.155972290E1
9.820706648E0,-1.890258789E-1,4.474639893E-1,1.232304382E1
9.870706648E0,4.929199219E-1,4.283142090E-1,1.165783691E1
9.920706648E0,4.929199219E-1,-6.604156494E-1,1.527099609E1
9.970706648E0,3.302154541E-1,-1.426116943E0,1.051406860E1
1.002070665E1,5.216369629E-1,-3.637084961E-1,7.999206543E0
1.007070665E1,6.221008301E-2,7.489471436E-1,6.032302856E0
1.012070665E1,-4.355010986E-1,6.580200195E-1,6.955932617E0
1.017070665E1,3.254241943E-1,6.364898682E-1,9.200408936E0
1.022070665E1,1.591232300E0,1.205978394E0,1.003788757E1
1.027070665E1,9.188385010E-1,1.294509888E0,1.227996826E1
1.032070665E1,1.060012817E0,8.614196777E-1,1.286860657E1
1.037070665E1,7.776641846E-1,-3.397827148E-1,1.244985962E1
1.042070665E1,-2.105712891E-1,-8.231353760E-1,1.234217834E1
1.047070665E1,-4.402770996E-1,-6.604156494E-1,8.913269043E0
1.052070665E1,-2.010040283E-1,-3.661041260E-1,7.963317871E0
1.057070665E1,-1.675415039E-2,3.661041260E-1,7.080368042E0
1.062070665E1,-1.914978027E-2,1.074371338E0,7.046859741E0
1.067070665E1,2.488555908E-1,1.268188477E0,7.905883789E0
1.072070665E1,5.647125244E-1,9.858398438E-1,1.057388306E1
1.077070665E1,6.412811279E-1,3.278198242E-1,1.223211670E1
1.082070665E1,4.139556885E-1,2.727813721E-1,1.343809509E1
1.087070665E1,1.359130859E0,-9.355926514E-1,1.266760254E1
1.092070665E1,-5.359954834E-1,-1.387832642E0,1.415832520E1
1.097070665E1,1.062408447E0,-8.159484863E-1,7.948959351E0
1.102070665E1,1.514663696E0,4.791259766E-3,9.052047729E0
1.107070665E1,6.077728271E-1,7.346038818E-1,5.359924316E0
1.112070665E1,-2.464599609E-1,1.246658325E0,6.300308228E0
1.117070665E1,8.255310059E-1,1.636688232E0,8.781661987E0
1.122070665E1,8.470611572E-1,1.739578247E0,1.131086731E1
1.127070665E1,5.814514160E-1,1.316055298E0,1.367498779E1
1.132070665E1,-1.124572754E-1,1.071990967E0,1.250489807E1
1.137070665E1,6.388854980E-1,-7.178497314E-1,1.501974487E1
1.142070665E1,-2.297058105E-1,-2.632141113E-1,8.865402222E0
1.147070665E1,-2.847442627E-1,-5.383911133E-1,8.700302124E0
1.152070665E1,-3.038940430E-1,2.153015137E-2,7.460815430E0
1.157070665E1,-3.230285645E-1,7.058868408E-1,6.484542847E0
1.162070665E1,-6.077728271E-1,1.024124146E0,7.735992432E0
1.167070665E1,3.708801270E-1,1.682159424E0,9.911071777E0
1.172070665E1,-3.421783447E-1,8.566284180E-1,1.208615112E1
1.177070665E1,3.062744141E-1,5.527496338E-1,1.312463379E1
1.182070665E1,-3.493499756E-1,6.221313477E-1,1.208615112E1
1.187070665E1,5.623168945E-1,1.435852051E-2,1.319163513E1
1.192070665E1,2.153015137E-2,-1.040878296E0,1.021496582E1
1.197070665E1,1.186843872E0,-3.828430176E-2,9.865615845E0
1.202070665E1,4.307556152E-2,4.402770996E-1,7.264602661E0
1.207070665E1,-4.498443604E-1,1.150955200E0,6.443878174E0
1.212070665E1,-5.096740723E-1,1.328018188E0,7.814956665E0
1.217070665E1,3.445739746E-1,1.770690918E0,9.877578735E0
1.222070665E1,3.230285645E-1,1.835296631E0,1.209811401E1
1.227070665E1,2.943115234E-1,1.129409790E0,1.325863647E1
1.232070665E1,-7.609100342E-1,1.684539795E0,1.147119141E1
1.237070665E1,-6.699829102E-1,2.823486328E-1,1.375872803E1
1.242070665E1,-9.140625000E-1,2.395629883E-3,9.243469238E0
1.247070665E1,-3.732757568E-1,3.828430176E-2,7.810180664E0
1.252070665E1,-2.225341797E-1,4.881286621E-1,8.216949463E0
1.257070665E1,-1.459655762E-1,1.177261353E0,6.788436890E0
1.262070665E1,-1.531372070E-1,1.485946655E0,7.499099731E0
1.267070665E1,1.028900146E-1,1.430908203E0,9.466003418E0
1.272070665E1,-2.129669189E-1,1.083953857E0,1.196171570E1
1.277070665E1,4.283142090E-1,8.973083496E-1,1.297866821E1
1.282070665E1,1.529006958E0,5.982055664E-1,1.182772827E1
1.287070665E1,3.111267090E-2,-7.657012939E-1,1.517767334E1
1.292070665E1,2.727813721E-1,-6.077728271E-1,8.449050903E0
1.297070665E1,2.249298096E-1,1.651000977E-1,8.633300781E0
1.302070665E1,-2.105712891E-1,9.690856934E-1,5.776275635E0
1.307070665E1,-1.002593994E0,1.500305176E0,6.613769531E0
1.312070665E1,-1.842498779E-1,1.624725342E0,8.757736206E0
1.317070665E1,7.202453613E-1,1.799407959E0,1.042074585E1
1.322070665E1,3.325958252E-1,1.751541138E0,1.250250244E1
1.327070665E1,1.062408447E0,1.406982422E0,1.340220642E1
1.332070665E1,9.643096924E-1,-2.010040283E-1,1.258624268E1
1.337070665E1,-2.991027832E-1,-5.623168945E-1,1.295474243E1
1.342070665E1,4.791259766E-3,-3.588867188E-2,8.654846191E0
1.347070665E1,4.355010986E-1,1.220397949E-1,7.936996460E0
1.352070665E1,-1.483612061E-1,9.547424316E-1,6.965499878E0
1.357070665E1,5.503845215E-2,1.337585449E0,6.793228149E0
1.362070665E1,6.388854980E-1,1.777862549E0,8.042282104E0
1.367070665E1,5.168457031E-1,1.363906860E0,1.056192017E1
1.372070665E1,7.177734375E-2,8.422698975E-1,1.259103394E1
1.377070665E1,-2.775726318E-1,6.484527588E-1,1.328495789E1
1.382070665E1,1.493118286E0,7.171630859E-3,1.239482117E1
1.387070665E1,-1.435699463E-1,-8.183441162E-1,1.268435669E1
1.392070665E1,6.245269775E-1,-7.465667725E-1,6.675979614E0
1.397070665E1,1.261016846E0,-1.890258789E-1,9.080764771E0
1.402070665E1,1.004943848E-1,6.101684570E-1,7.051651001E0
1.407070665E1,-3.517456055E-1,8.973083496E-1,6.943969727E0
1.412070665E1,-3.852386475E-1,1.150955200E0,9.702896118E0
1.417070665E1,1.012161255E0,1.497909546E0,1.106919861E1
1.422070665E1,9.643096924E-1,8.303070068E-1,1.392622375E1
1.427070665E1,7.944183350E-1,1.048049927E0,1.195214844E1
1.432070665E1,4.833526611E-1,-1.016952515E0,1.479721069E1
1.437070665E1,-9.403839111E-1,-9.643096924E-1,9.647857666E0
1.442070665E1,-9.068756104E-1,-1.435699463E-1,7.558929443E0
1.447070665E1,2.847442627E-1,6.412811279E-1,8.049453735E0
1.452070665E1,1.196441650E-1,1.304092407E0,6.850646973E0
1.457070665E1,-1.244201660E-1,1.251449585E0,8.047058105E0
1.462070665E1,1.555328369E-1,1.205978394E0,8.774475098E0
1.467070665E1,-4.067993164E-2,4.115600586E-1,1.187318420E1
1.472070665E1,6.412811279E-1,6.077728271E-1,1.159083557E1
1.477070665E1,-3.972015381E-1,4.067840576E-1,1.059541321E1
1.482070665E1,1.052856445E-1,-5.264282227E-2,1.472543335E1
1.487070665E1,4.091796875E-1,-1.440475464E0,1.019104004E1
1.492070665E1,7.178497314E-1,-6.484527588E-1,9.815353394E0
1.497070665E1,1.052856445E-1,2.871398926E-1,6.580261230E0
1.502070665E1,-2.656097412E-1,1.088729858E0,6.032302856E0
1.507070665E1,-7.322082520E-1,7.561340332E-1,7.936996460E0
1.512070665E1,4.259185791E-1,1.442871094E0,1.019342041E1
1.517070665E1,1.938171387E-1,6.604156494E-1,1.261735535E1
1.522070665E1,7.704925537E-1,7.800598145E-1,1.409851074E1
1.527070665E1,1.962127686E-1,-1.014556885E0,1.331127930E1
1.532070665E1,-2.464599609E-1,-7.226257324E-1,1.175354004E1
1.537070665E1,8.375549316E-2,7.417297363E-2,8.331802368E0
1.542070665E1,1.340026855E-1,2.991027832E-1,6.384048462E0
1.547070665E1,3.708801270E-1,6.053771973E-1,7.456039429E0
1.552070665E1,4.953155518E-1,1.031311035E0,7.460815430E0
1.557070665E1,4.857482910E-1,5.958099365E-1,9.327224731E0
1.562070665E1,2.967071533E-1,1.698913574E-1,1.175115967E1
1.567070665E1,6.532440186E-1,-4.355010986E-1,1.231106567E1
1.572070665E1,2.010040283E-1,-2.775726318E-1,1.206700134E1
1.577070665E1,1.856826782E0,-8.757781982E-1,1.463690186E1
1.582070665E1,-7.177734375E-2,-2.007583618E0,1.222732544E1
1.587070665E1,1.265808105E0,-1.435699463E-1,7.958526611E0
1.592070665E1,5.575256348E-1,6.604156494E-1,7.513458252E0
1.597070665E1,-4.163513184E-1,1.205978394E0,5.711669922E0
1.602070665E1,-4.785156250E-2,1.074371338E0,7.350753784E0
1.607070665E1,3.541412354E-1,1.249053955E0,9.422943115E0
1.612070665E1,9.547424316E-1,8.183441162E-1,1.184925842E1
1.617070665E1,1.617553711E0,1.507415771E-1,1.434497070E1
1.622070665E1,8.949127197E-1,9.547424316E-1,1.166261292E1
1.627070665E1,6.340942383E-1,-5.192413330E-1,1.534277344E1
1.632070665E1,-3.111267090E-2,5.503845215E-2,8.073379517E0
1.637070665E1,-1.435699463E-1,-2.225341797E-1,8.762512207E0
1.642070665E1,4.331054688E-1,4.713897705E-1,7.099502563E0
1.647070665E1,-2.225341797E-1,9.379882812E-1,5.857635498E0
1.652070665E1,-8.853149414E-2,1.071990967E0,7.063613892E0
1.657070665E1,3.732757568E-1,9.499511719E-1,9.401397705E0
1.662070665E1,8.183441162E-1,2.656097412E-1,1.280160522E1
1.667070665E1,1.237091064E0,5.694885254E-1,1.301695251E1
1.672070665E1,1.691726685E0,-3.900299072E-1,1.217947388E1
1.677070665E1,3.421783447E-1,-9.164581299E-1,1.476611328E1
1.682070665E1,8.207397461E-1,-7.034912109E-1,7.178466797E0
1.687070665E1,9.355926514E-1,3.111267090E-2,8.791229248E0
1.692070665E1,3.565368652E-1,5.670928955E-1,6.094512939E0
1.697070665E1,-7.656860352E-2,1.246658325E0,7.231109619E0
1.702070665E1,6.101684570E-1,1.787445068E0,8.532806396E0
1.707070665E1,1.100692749E0,1.366302490E0,1.208375549E1
1.712070665E1,1.509872437E0,1.105484009E0,1.398126221E1
1.717070665E1,8.183441162E-1,1.215560913E0,1.245463562E1
1.722070665E1,1.155731201E0,1.675415039E-2,1.294757080E1
1.727070665E1,1.842498779E-1,-7.657012939E-1,1.056431580E1
1.732070665E1,-9.092712402E-2,-2.608184814E-1,7.288543701E0
1.737070665E1,-5.981445312E-2,-1.459655762E-1,7.812561035E0
1.742070665E1,1.651000977E-1,7.752685547E-1,8.085342407E0
1.747070665E1,-4.043884277E-1,9.355926514E-1,7.972885132E0
1.752070665E1,3.182525635E-1,9.188385010E-1,9.348754883E0
1.757070665E1,2.105712891E-1,3.038940430E-1,1.126301575E1
1.762070665E1,6.221313477E-1,-1.148529053E-1,1.281596375E1
1.767070665E1,4.498443604E-1,8.135986328E-2,1.127258301E1
1.772070665E1,7.369842529E-1,-2.703857422E-1,1.387837219E1
1.777070665E1,8.709869385E-1,-1.136596680E0,9.700500488E0
1.782070665E1,1.311264038E0,-2.416687012E-1,8.315063477E0
1.787070665E1,2.727813721E-1,6.699829102E-1,6.757324219E0
1.792070665E1,1.842498779E-1,1.454833984E0,6.360122681E0
1.797070665E1,2.847442627E-1,1.380661011E0,8.707489014E0
1.802070665E1,7.609100342E-1,1.138977051E0,1.080358887E1
1.807070665E1,9.667053223E-1,6.173553467E-1,1.311984253E1
1.812070665E1,1.026519775E0,6.221313477E-1,1.341656494E1
1.817070665E1,1.103088379E0,1.890258789E-1,1.168893433E1
1.822070665E1,-1.674957275E-1,-6.795654297E-1,1.290449524E1
1.827070665E1,-5.383911133E-1,-6.245269775E-1,8.587844849E0
1.832070665E1,4.355010986E-1,1.004943848E-1,6.802795410E0
1.837070665E1,-5.144500732E-1,6.149597168E-1,7.582855225E0
1.842070665E1,2.321014404E-1,1.239486694E0,7.257431030E0
1.847070665E1,-1.148529053E-1,1.095916748E0,8.482559204E0
1.852070665E1,9.567260742E-3,7.346038818E-1,1.081555176E1
1.857070665E1,3.230285645E-1,2.512512207E-1,1.368215942E1
1.862070665E1,-2.847442627E-1,7.417755127E-1,1.238764954E1
1.867070665E1,5.359954834E-1,-6.412811279E-1,1.610369873E1
1.872070665E1,-2.392578125E-2,-8.111724854E-1,1.014556885E1
1.877070665E1,6.867370605E-1,-4.761657715E-1,7.515853882E0
1.882070665E1,4.594268799E-1,2.895355225E-1,7.044464111E0
1.887070665E1,-6.460571289E-1,6.316986084E-1,5.905487061E0
1.892070665E1,-6.293182373E-1,8.757781982E-1,7.654632568E0
1.897070665E1,6.699829102E-1,1.715652466E0,9.834503174E0
1.902070665E1,-1.483612061E-1,1.337585449E0,1.235893250E1
1.907070665E1,6.316986084E-1,1.146163940E0,1.483311462E1
1.912070665E1,4.761657715E-1,6.221008301E-2,1.186361694E1
1.917070665E1,-7.417755127E-1,-6.532440186E-1,1.269392395E1
1.922070665E1,-3.325958252E-1,-1.220397949E-1,7.984848022E0
1.927070665E1,1.722869873E-1,2.201385498E-1,8.025527954E0
1.932070665E1,-2.081756592E-1,5.216369629E-1,6.601791382E0
1.937070665E1,4.547119141E-2,1.445266724E0,6.953536987E0
1.942070665E1,1.244201660E-1,1.296905518E0,7.992034912E0
1.947070665E1,1.076812744E-1,8.661956787E-1,1.207896423E1
1.952070665E1,6.221313477E-1,5.288085938E-1,1.342373657E1
1.957070665E1,2.584228516E-1,5.623168945E-1,1.246661377E1
1.962070665E1,5.001068115E-1,7.177734375E-2,1.384008789E1
1.967070665E1,-1.866455078E-1,-1.062408447E0,9.568893433E0
1.972070665E1,1.100692749E0,-2.847442627E-1,8.147567749E0
1.977070665E1,3.828582764E-1,4.378814697E-1,7.762313843E0
1.982070665E1,1.507415771E-1,1.165298462E0,5.867202759E0
1.987070665E1,9.332275391E-2,1.517044067E0,7.271789551E0
1.992070665E1,7.992095947E-1,1.639083862E0,1.010968018E1
1.997070665E1,5.790557861E-1,1.371093750E0,1.338305664E1
2.002070665E1,1.397415161E0,9.020996094E-1,1.429472351E1
2.007070665E1,1.395019531E0,-1.172485352E-1,1.289492798E1
2.012070665E1,3.732757568E-1,-7.657012939E-1,1.244985962E1
2.017070665E1,-3.780670166E-1,-3.134613037E-1,7.836486816E0
2.022070665E1,-6.652069092E-1,-3.206329346E-1,8.523239136E0
2.027070665E1,1.435699463E-1,4.809570312E-1,6.407974243E0
2.032070665E1,-3.565368652E-1,1.019348145E0,6.833908081E0
2.037070665E1,2.177429199E-1,1.354339600E0,7.585250854E0
2.042070665E1,1.411743164E-1,1.048049927E0,1.035614014E1
2.047070665E1,5.168457031E-1,4.713897705E-1,1.248095703E1
2.052070665E1,4.833526611E-1,4.067840576E-1,1.407698059E1
2.057070665E1,1.806579590E0,-1.435852051E-2,1.150468445E1
2.062070665E1,3.349304199E-2,-1.136596680E0,1.350987244E1
2.067070665E1,7.489471436E-1,-9.858398438E-1,8.374877930E0
2.072070665E1,1.083953857E0,9.092712402E-2,1.005464172E1
2.077070665E1,-3.469543457E-1,7.800598145E-1,5.627914429E0
2.082070665E1,-5.599212646E-1,1.478759766E0,6.376876831E0
2.087070665E1,-1.555328369E-1,1.507476807E0,8.638092041E0
2.092070665E1,3.732757568E-1,1.332809448E0,1.110031128E1
2.097070665E1,3.804626465E-1,4.953155518E-1,1.351945496E1
2.102070665E1,2.895355225E-1,1.225128174E0,1.240200806E1
2.107070665E1,1.170089722E0,-8.638153076E-1,1.451965332E1
2.112070665E1,-7.465667725E-1,-5.048828125E-1,8.319839478E0
2.117070665E1,-6.986999512E-1,-4.977111816E-1,9.123840332E0
2.122070665E1,9.092712402E-2,1.459655762E-1,7.956130981E0
2.127070665E1,-2.584228516E-1,7.657012939E-1,6.628112793E0
2.132070665E1,-9.595184326E-1,9.236297607E-1,7.489532471E0
2.137070665E1,5.288085938E-1,1.517044067E0,9.248260498E0
2.142070665E1,-4.546356201E-1,5.551300049E-1,1.187078857E1
2.147070665E1,8.087768555E-1,2.368927002E-1,1.305284119E1
2.152070665E1,-1.914978027E-2,3.254241943E-1,1.250250244E1
2.157070665E1,8.925170898E-1,-5.312042236E-1,1.293081665E1
2.162070665E1,-1.148529053E-1,-7.824554443E-1,1.136112976E1
2.167070665E1,1.440475464E0,-2.129669189E-1,7.412963867E0
2.172070665E1,9.667053223E-1,1.770629883E-1,7.561325073E0
2.177070665E1,-2.632141113E-1,4.019927979E-1,7.006179810E0
2.182070665E1,-3.182525635E-1,8.733825684E-1,8.233703613E0
2.187070665E1,4.618072510E-1,1.033706665E0,9.286544800E0
2.192070665E1,1.184448242E0,1.103088379E0,1.262214661E1
2.197070665E1,1.177261353E0,1.674957275E-1,1.460578918E1
2.202070665E1,-7.417297363E-2,9.260253906E-1,1.082273865E1
2.207070665E1,-1.459655762E-1,-1.095916748E0,1.458186340E1
2.212070665E1,-4.091796875E-1,-9.212341309E-1,9.097518921E0
2.217070665E1,-7.154541016E-1,-1.890258789E-1,7.683349609E0
2.222070665E1,1.411743164E-1,6.364898682E-1,6.467803955E0
2.227070665E1,-3.948211670E-1,8.374938965E-1,7.152145386E0
2.232070665E1,2.010040283E-1,1.349548340E0,7.671386719E0
2.237070665E1,3.828430176E-2,1.071990967E0,1.067916870E1
2.242070665E1,4.833526611E-1,4.689941406E-1,1.232781982E1
2.247070665E1,3.661041260E-1,3.637084961E-1,1.366540527E1
2.252070665E1,1.191619873E0,-3.158569336E-1,1.147836304E1
2.257070665E1,-8.350982666E-1,-1.416549683E0,1.423968506E1
2.262070665E1,3.900299072E-1,-6.364898682E-1,7.731216431E0
2.267070665E1,1.014556885E0,2.321014404E-1,8.733810425E0
2.272070665E1,4.713897705E-1,5.838470459E-1,7.080368042E0
2.277070665E1,-1.866455078E-1,1.060012817E0,7.176071167E0
2.282070665E1,2.632141113E-2,1.301696777E0,8.616561890E0
2.287070665E1,-7.177734375E-2,1.476364136E0,1.051884460E1
2.292070665E1,1.675415039E-2,1.076766968E0,1.251206970E1
2.297070665E1,-3.230285645E-1,1.127014160E0,1.236370850E1
2.302070665E1,4.737854004E-1,-4.833526611E-1,1.503410339E1
2.307070665E1,-8.255310059E-1,-6.532440186E-1,8.769699097E0
2.312070665E1,-7.920227051E-1,-5.862426758E-1,9.858428955E0
2.317070665E1,-6.484527588E-1,-1.196441650E-1,8.604583740E0
2.322070665E1,-8.422698975E-1,8.973083496E-1,6.101699829E0
2.327070665E1,-8.398742676E-1,1.282546997E0,6.745361328E0
2.332070665E1,-1.177261353E0,1.440475464E0,8.927627563E0
2.337070665E1,-7.896270752E-1,9.403839111E-1,1.260299683E1
2.342070665E1,8.470611572E-1,6.221313477E-1,1.328733826E1
2.347070665E1,-3.588867188E-2,5.814514160E-1,1.229432678E1
2.352070665E1,6.101684570E-1,-1.914978027E-2,1.350270081E1
2.357070665E1,-4.665985107E-1,-1.031311035E0,1.004028320E1
2.362070665E1,1.239486694E0,3.948211670E-1,7.724029541E0
2.367070665E1,-1.100769043E-1,6.580200195E-1,7.355529785E0
2.372070665E1,-5.503540039E-1,9.547424316E-1,7.192825317E0
2.377070665E1,-6.700134277E-2,1.361511230E0,8.027923584E0
2.382070665E1,3.445739746E-1,1.246658325E0,1.053799438E1
2.387070665E1,7.393798828E-1,8.039855957E-1,1.267239380E1
2.392070665E1,6.173553467E-1,5.934143066E-1,1.261735535E1
2.397070665E1,5.335998535E-1,3.541412354E-1,1.028434753E1
2.402070665E1,-3.948211670E-1,-5.575256348E-1,1.222972107E1
2.407070665E1,-3.445739746E-1,-3.038940430E-1,8.709869385E0
2.412070665E1,-1.818542480E-1,8.135986328E-2,9.714859009E0
2.417070665E1,-7.896423340E-2,8.255310059E-1,7.439285278E0
2.422070665E1,-6.125640869E-1,8.350982666E-1,7.176071167E0
2.427070665E1,-4.785156250E-2,1.371093750E0,8.872589111E0
2.432070665E1,9.809875488E-2,7.322082520E-1,1.195933533E1
2.437070665E1,5.359954834E-1,7.034912109E-1,1.176072693E1
2.442070665E1,-4.737854004E-1,6.125640869E-1,1.311506653E1
2.447070665E1,1.174880981E0,-1.435699463E-1,1.274896240E1
2.452070665E1,2.584228516E-1,-1.497909546E0,1.160519409E1
2.457070665E1,7.010955811E-1,-3.900299072E-1,6.582656860E0
2.462070665E1,3.661041260E-1,5.240325928E-1,8.516052246E0
2.467070665E1,-3.134613037E-1,8.135528564E-1,6.685546875E0
2.472070665E1,-2.416687012E-1,1.615158081E0,7.333999634E0
2.477070665E1,1.196289062E-2,1.282546997E0,9.198013306E0
2.482070665E1,9.188385010E-1,1.119842529E0,1.246661377E1
2.487070665E1,8.015899658E-1,6.316986084E-1,1.395494080E1
2.492070665E1,4.547119141E-2,8.614196777E-1,1.180857849E1
2.497070665E1,2.871704102E-2,-2.703857422E-1,1.342134094E1
2.502070665E1,-5.479583740E-1,-2.368927002E-1,8.185852051E0
2.507070665E1,1.675415039E-2,-1.746826172E-1,7.283752441E0
2.512070665E1,2.249298096E-1,4.737854004E-1,7.554138184E0
2.517070665E1,-2.010040283E-1,8.901367188E-1,7.013366699E0
2.522070665E1,-1.196289062E-2,1.622329712E0,7.281356812E0
2.527070665E1,-4.791259766E-3,8.757781982E-1,1.093280029E1
2.532070665E1,1.088729858E0,4.139556885E-1,1.279203796E1
2.537070665E1,1.363983154E-1,1.363983154E-1,1.358644104E1
2.542070665E1,1.435699463E0,4.791259766E-3,1.158364868E1
2.547070665E1,-4.547119141E-2,-7.417755127E-1,1.407218933E1
2.552070665E1,7.992095947E-1,-1.674957275E-1,6.795623779E0
2.557070665E1,1.342376709E0,-3.038940430E-1,8.901306152E0
2.562070665E1,6.197357178E-1,-1.244201660E-1,6.271591187E0
2.567070665E1,-3.589172363E-1,4.809570312E-1,7.374679565E0
2.572070665E1,2.395629883E-3,9.667053223E-1,8.642868042E0
2.577070665E1,8.781585693E-1,1.191619873E0,1.175354004E1
2.582070665E1,1.356735229E0,7.609100342E-1,1.512982178E1
2.587070665E1,4.091796875E-1,1.079162598E0,1.215553284E1
2.592070665E1,-3.278198242E-1,-1.177261353E0,1.461535645E1
2.597070665E1,-1.268157959E-1,-2.033843994E-1,9.580856323E0
2.602070665E1,-2.297058105E-1,-1.172485352E-1,7.391433716E0
2.607070665E1,1.651000977E-1,2.249298096E-1,7.987243652E0
2.612070665E1,-1.555328369E-1,1.067199707E0,6.372085571E0
2.617070665E1,-3.373870850E-1,1.203582764E0,7.348358154E0
2.622070665E1,9.140625000E-1,1.162918091E0,9.315261841E0
2.627070665E1,5.096740723E-1,7.298126221E-1,1.342852783E1
2.632070665E1,1.060012817E0,5.503540039E-1,1.259342957E1
2.637070665E1,1.392623901E0,4.019927979E-1,1.078923035E1
2.642070665E1,7.561340332E-1,-9.475555420E-1,1.472543335E1
2.647070665E1,8.997039795E-1,-6.604156494E-1,8.145172119E0
2.652070665E1,8.685913086E-1,-2.991027832E-1,7.759918213E0
2.657070665E1,6.628112793E-1,1.103088379E0,8.303100586E0
2.662070665E1,-4.547119141E-2,1.452438354E0,6.699905396E0
2.667070665E1,7.274169922E-1,1.730010986E0,8.726623535E0
2.672070665E1,1.363906860E0,2.337783813E0,9.434906006E0
2.677070665E1,3.517456055E-1,1.323226929E0,1.285664368E1
2.682070665E1,1.060012817E0,1.524230957E0,1.315095520E1
2.687070665E1,5.551300049E-1,-2.727813721E-1,1.212921143E1
2.692070665E1,-3.995971680E-1,-3.014984131E-1,1.168655396E1
2.697070665E1,2.871704102E-2,2.727813721E-1,8.039886475E0
2.702070665E1,1.387786865E-1,5.455627441E-1,8.178665161E0
2.707070665E1,2.177429199E-1,1.083953857E0,8.185852051E0
2.712070665E1,-2.105712891E-1,1.311264038E0,7.487136841E0
2.717070665E1,-1.746826172E-1,1.361511230E0,9.351150513E0
2.722070665E1,3.397827148E-1,1.170089722E0,1.167457581E1
2.727070665E1,5.168457031E-1,1.057632446E0,1.258624268E1
2.732070665E1,-1.579284668E-1,9.236297607E-1,1.121037292E1
2.737070665E1,1.091125488E0,2.321014404E-1,1.265324402E1
2.742070665E1,-4.547119141E-2,-7.417755127E-1,1.132522583E1
2.747070665E1,8.303070068E-1,3.637084961E-1,7.805389404E0
2.752070665E1,5.503845215E-2,1.165298462E0,8.135604858E0
2.757070665E1,-1.794586182E-1,1.574478149E0,6.924835205E0
2.762070665E1,-3.852386475E-1,1.696517944E0,8.255233765E0
2.767070665E1,6.963043213E-1,2.189437866E0,9.549758911E0
2.772070665E1,4.785614014E-1,1.954940796E0,1.138743591E1
2.777070665E1,8.566284180E-1,1.351943970E0,1.340220642E1
2.782070665E1,2.177429199E-1,1.564910889E0,1.065524292E1
2.787070665E1,-4.642028809E-1,-2.249298096E-1,1.330409241E1
2.792070665E1,-7.417297363E-2,5.024719238E-2,9.298507690E0
2.797070665E1,3.852386475E-1,2.871398926E-1,8.324630737E0
2.802070665E1,3.613128662E-1,9.738769531E-1,8.008773804E0
2.807070665E1,-2.608184814E-1,1.339981079E0,7.810180664E0
2.812070665E1,4.450683594E-1,1.789825439E0,8.882156372E0
2.817070665E1,-3.804626465E-1,1.648651123E0,1.045184326E1
2.822070665E1,4.618072510E-1,1.328018188E0,1.199282837E1
2.827070665E1,2.608184814E-1,1.385437012E0,1.259342957E1
2.832070665E1,1.629516602E0,1.196441650E-1,1.270111084E1
2.837070665E1,-8.613586426E-2,-6.532440186E-1,1.161476135E1
2.842070665E1,6.293182373E-1,2.847442627E-1,7.551742554E0
2.847070665E1,9.020996094E-1,5.886383057E-1,9.054443359E0
2.852070665E1,-9.809875488E-2,8.327026367E-1,7.824523926E0
2.857070665E1,1.579284668E-1,1.643875122E0,7.350753784E0
2.862070665E1,9.212341309E-1,2.203796387E0,8.788833618E0
2.867070665E1,9.834442139E-1,2.340179443E0,1.032025146E1
2.872070665E1,5.766754150E-1,1.586441040E0,1.234217834E1
2.877070665E1,6.939697266E-2,1.849655151E0,1.131326294E1
2.882070665E1,4.498443604E-1,3.038940430E-1,1.222492981E1
2.887070665E1,3.565368652E-1,-3.062744141E-1,1.200479126E1
2.892070665E1,-1.938171387E-1,1.052856445E-1,7.568496704E0
2.897070665E1,-2.153472900E-1,4.498443604E-1,8.157135010E0
2.902070665E1,-1.220397949E-1,1.043273926E0,7.243072510E0
2.907070665E1,-3.804626465E-1,1.265808105E0,8.025527954E0
2.912070665E1,1.674957275E-1,1.610366821E0,9.789031982E0
2.917070665E1,2.775726318E-1,1.179656982E0,1.183010864E1
2.922070665E1,9.786682129E-1,9.308013916E-1,1.251446533E1
2.927070665E1,-4.546356201E-1,1.493118286E0,1.106919861E1
2.932070665E1,1.074371338E0,9.567260742E-3,1.461535645E1
2.937070665E1,4.809570312E-1,-3.278198242E-1,9.066406250E0
2.942070665E1,1.572082520E0,-6.939697266E-2,7.463211060E0
2.947070665E1,4.426727295E-1,2.560272217E-1,8.561523438E0
2.952070665E1,5.024719238E-2,1.095916748E0,8.003997803E0
2.957070665E1,3.924255371E-1,1.469192505E0,8.051849365E0
2.962070665E1,9.619140625E-1,1.763504028E0,9.533004761E0
2.967070665E1,8.135528564E-1,1.378265381E0,1.218664551E1
2.972070665E1,2.196609497E0,1.462020874E0,1.362472534E1
2.977070665E1,1.746826172E-1,1.057632446E0,1.122473145E1
2.982070665E1,-6.029968262E-1,1.196289062E-2,1.138505554E1
2.987070665E1,-4.067993164E-2,-2.297058105E-1,9.317657471E0
2.992070665E1,5.766754150E-1,1.818542480E-1,8.676376343E0
2.997070665E1,-1.387786865E-1,6.460571289E-1,6.979858398E0
3.002070665E1,5.981445312E-2,1.050445557E0,7.070785522E0
3.007070665E1,0.000000000E0,1.194015503E0,7.858032227E0
3.012070665E1,-1.340026855E-1,1.083953857E0,9.987640381E0
3.017070665E1,1.196441650E-1,5.670928955E-1,1.301455688E1
3.022070665E1,4.378814697E-1,7.633056641E-1,1.310787964E1
3.027070665E1,1.789825439E0,5.670928955E-1,1.145922852E1
3.032070665E1,2.344970703E-1,-6.819610596E-1,1.324427795E1
3.037070665E1,6.221313477E-1,-3.900299072E-1,8.910873413E0
3.042070665E1,7.561340332E-1,-1.268157959E-1,8.800796509E0
3.047070665E1,2.560272217E-1,8.949127197E-1,6.826721191E0
3.052070665E1,4.067993164E-2,1.557723999E0,6.955932617E0
3.057070665E1,6.867370605E-1,1.718048096E0,8.511276245E0
3.062070665E1,6.173553467E-1,1.744369507E0,1.077009583E1
3.067070665E1,1.351943970E0,1.038482666E0,1.367498779E1
3.072070665E1,4.426727295E-1,1.095916748E0,1.291885376E1
3.077070665E1,1.306488037E0,-6.700134277E-2,1.390708923E1
3.082070665E1,-3.684997559E-1,-7.202453613E-1,9.939788818E0
3.087070665E1,-2.751770020E-1,-3.493499756E-1,8.769699097E0
3.092070665E1,-1.363983154E-1,-3.349304199E-2,8.834304810E0
3.097070665E1,-1.674957275E-1,7.537384033E-1,6.427124023E0
3.102070665E1,-5.551300049E-1,1.060012817E0,6.553939819E0
3.107070665E1,1.555328369E-1,1.299301147E0,8.090133667E0
3.112070665E1,-3.469543457E-1,7.250213623E-1,1.184686279E1
3.117070665E1,1.103088379E0,7.920227051E-1,1.283749390E1
3.122070665E1,4.187469482E-1,7.393798828E-1,1.240438843E1
3.127070665E1,9.762725830E-1,3.541412354E-1,1.396690369E1
3.132070665E1,6.795654297E-1,-1.095916748E0,1.175833130E1
3.137070665E1,1.304092407E0,-2.656097412E-1,8.319839478E0
3.142070665E1,6.340942383E-1,4.067840576E-1,7.602005005E0
3.147070665E1,-1.914978027E-2,9.786682129E-1,6.446258545E0
3.152070665E1,-4.067993164E-2,1.265808105E0,7.080368042E0
3.157070665E1,7.274169922E-1,1.780258179E0,9.384643555E0
3.162070665E1,9.667053223E-1,1.919036865E0,1.180857849E1
3.167070665E1,1.663009644E0,9.906311035E-1,1.441197205E1
3.172070665E1,9.284210205E-1,1.399795532E0,1.116491699E1
3.177070665E1,4.498443604E-1,-2.847442627E-1,1.419183350E1
3.182070665E1,-4.450683594E-1,1.435699463E-1,8.563919067E0
3.187070665E1,-1.770629883E-1,-4.785156250E-2,9.001800537E0
3.192070665E1,1.986083984E-1,8.973083496E-1,7.152145386E0
3.197070665E1,-4.259185791E-1,1.100692749E0,6.515655518E0
3.202070665E1,-7.417297363E-2,1.572082520E0,7.759918213E0
3.207070665E1,-7.177734375E-2,1.660614014E0,1.013360596E1
3.212070665E1,1.507415771E-1,1.335189819E0,1.215792847E1
3.217070665E1,5.120697021E-1,8.374938965E-1,1.258146667E1
3.222070665E1,6.340942383E-1,6.316986084E-1,1.091366577E1
3.227070665E1,4.791259766E-3,-3.565368652E-1,1.494557190E1
3.232070665E1,5.359954834E-1,-2.775726318E-1,8.386840820E0
3.237070665E1,9.714813232E-1,-5.264282227E-2,9.600006104E0
3.242070665E1,4.594268799E-1,7.896270752E-1,7.111465454E0
3.247070665E1,4.618072510E-1,1.466796875E0,6.156738281E0
3.252070665E1,9.547424316E-1,1.789825439E0,8.008773804E0
3.257070665E1,1.371093750E0,1.945358276E0,9.870391846E0
3.262070665E1,6.460571289E-1,9.978027344E-1,1.312223816E1
3.267070665E1,1.373474121E0,1.485946655E0,1.374197388E1
3.272070665E1,5.743408203E-2,1.172485352E-1,1.202871704E1
3.277070665E1,-9.809875488E-2,-1.890258789E-1,1.009292603E1
3.282070665E1,-1.148529053E-1,-3.373870850E-1,8.934799194E0
3.287070665E1,5.312042236E-1,2.943115234E-1,8.690734863E0
3.292070665E1,2.488555908E-1,7.776641846E-1,7.286148071E0
3.297070665E1,2.488555908E-1,9.690856934E-1,7.008575439E0
3.302070665E1,3.804626465E-1,1.246658325E0,8.685943604E0
3.307070665E1,-3.613128662E-1,5.240325928E-1,1.171047974E1
3.312070665E1,8.135528564E-1,3.397827148E-1,1.307199097E1
3.317070665E1,5.981445312E-2,2.727813721E-1,1.259103394E1
3.322070665E1,1.801788330E0,-6.221008301E-2,1.383529663E1
3.327070665E1,7.393798828E-1,-1.440475464E0,1.193539429E1
3.332070665E1,1.509872437E0,-3.684997559E-1,9.099899292E0
3.337070665E1,5.910339355E-1,-5.264282227E-2,7.255035400E0
3.342070665E1,-5.024719238E-2,8.231353760E-1,5.314453125E0
3.347070665E1,-2.608184814E-1,1.170089722E0,6.819549561E0
3.352070665E1,9.020996094E-1,1.392623901E0,9.085556030E0
3.357070665E1,1.086334229E0,8.685913086E-1,1.106440735E1
3.362070665E1,1.095916748E0,7.154541016E-1,1.311744690E1
3.367070665E1,-3.110656738E-1,1.509872437E0,1.149990845E1
3.372070665E1,1.890258789E-1,-8.231353760E-1,1.619462585E1
3.377070665E1,-9.092712402E-2,-3.397827148E-1,9.477966309E0
3.382070665E1,1.387786865E-1,-1.196441650E-1,7.654632568E0
3.387070665E1,2.464599609E-1,6.580200195E-1,6.903289795E0
3.392070665E1,-4.283142090E-1,7.537384033E-1,7.231109619E0
3.397070665E1,1.555328369E-1,1.141372681E0,8.331802368E0
3.402070665E1,-2.656097412E-1,4.355010986E-1,1.086341858E1
3.407070665E1,3.900299072E-1,4.067840576E-1,1.213160706E1
3.412070665E1,1.555328369E-1,-3.708801270E-1,1.281117249E1
3.417070665E1,1.270584106E0,-1.914978027E-2,1.113140869E1
3.422070665E1,-6.149597168E-1,-1.141372681E0,1.396690369E1
3.427070665E1,1.028915405E0,-8.518524170E-1,8.989837646E0
3.432070665E1,1.100692749E0,4.791259766E-3,8.884552002E0
3.437070665E1,4.761657715E-1,4.642028809E-1,6.711868286E0
3.442070665E1,1.770629883E-1,9.690856934E-1,7.142578125E0
3.447070665E1,8.470611572E-1,1.086334229E0,8.781661987E0
3.452070665E1,1.060012817E0,1.452438354E0,1.005224609E1
3.457070665E1,1.045669556E0,6.723785400E-1,1.300978088E1
3.462070665E1,8.997039795E-1,1.074371338E0,1.235893250E1
3.467070665E1,2.000396729E0,-7.130584717E-1,1.422772217E1
3.472070665E1,-5.479583740E-1,-1.119842529E0,1.124388123E1
3.477070665E1,-7.609100342E-1,-5.886383057E-1,7.968093872E0
3.482070665E1,-1.028900146E-1,-1.363983154E-1,7.609176636E0
3.487070665E1,-6.101684570E-1,4.857482910E-1,7.128219604E0
3.492070665E1,-4.426727295E-1,1.275375366E0,7.001403809E0
3.497070665E1,0.000000000E0,1.351943970E0,8.621337891E0
3.502070665E1,-4.067993164E-2,3.230285645E-1,1.227757263E1
3.507070665E1,3.589172363E-1,1.746826172E-1,1.333520508E1
3.512070665E1,-1.244201660E-1,3.756713867E-1,1.178944397E1
3.517070665E1,6.700134277E-2,-1.165298462E0,1.562274170E1
3.522070665E1,-7.298126221E-1,-1.141372681E0,1.021734619E1
3.527070665E1,1.356735229E0,-3.421783447E-1,8.353347778E0
3.532070665E1,9.188385010E-1,5.479583740E-1,6.869796753E0
3.537070665E1,-6.484527588E-1,7.298126221E-1,5.572891235E0
3.542070665E1,-1.387786865E-1,1.162918091E0,7.149749756E0
3.547070665E1,2.057800293E-1,1.289733887E0,9.212371826E0
3.552070665E1,2.464599609E-1,8.255310059E-1,1.279681396E1
3.557070665E1,1.036087036E0,5.910339355E-1,1.350270081E1
3.562070665E1,1.629516602E0,-8.901367188E-1,1.395494080E1
3.567070665E1,-7.968139648E-1,-1.375869751E0,1.303610229E1
3.572070665E1,-7.680969238E-1,-4.570312500E-1,8.702697754E0
3.577070665E1,-3.565368652E-1,-2.656097412E-1,7.700103760E0
3.582070665E1,-2.177429199E-1,4.953155518E-1,6.783645630E0
3.587070665E1,-3.852386475E-1,9.284210205E-1,7.006179810E0
3.592070665E1,3.110656738E-1,1.349548340E0,7.826919556E0
3.597070665E1,-1.244201660E-1,6.484527588E-1,1.140898132E1
3.602070665E1,4.570312500E-1,-4.067993164E-2,1.334956360E1
3.607070665E1,-2.464599609E-1,3.278198242E-1,1.256471252E1
3.612070665E1,8.279113770E-1,-7.034912109E-1,1.373001099E1
3.617070665E1,-1.411743164E-1,-1.830505371E0,1.138983154E1
3.622070665E1,1.105484009E0,-9.044799805E-1,7.936996460E0
3.627070665E1,8.063812256E-1,1.507415771E-1,8.805587769E0
3.632070665E1,-1.340026855E-1,7.609100342E-1,6.419937134E0
3.637070665E1,-4.791259766E-3,1.337585449E0,7.700103760E0
3.642070665E1,6.556396484E-1,1.471588135E0,8.898910522E0
3.647070665E1,1.244201660E-1,1.088729858E0,1.184925842E1
3.652070665E1,1.225128174E0,6.986999512E-1,1.316291809E1
3.657070665E1,4.043884277E-1,2.129669189E-1,1.164587402E1
3.662070665E1,5.982055664E-1,-8.853454590E-1,1.430668640E1
3.667070665E1,-3.038940430E-1,-6.508483887E-1,8.324630737E0
3.672070665E1,-1.866455078E-1,-4.618072510E-1,8.327026367E0
3.677070665E1,5.383911133E-1,4.402770996E-1,7.625930786E0
3.682070665E1,-1.746826172E-1,1.002593994E0,6.719039917E0
3.687070665E1,1.459655762E-1,1.325622559E0,7.357925415E0
3.692070665E1,1.268157959E-1,5.718841553E-1,1.116491699E1
3.697070665E1,7.537384033E-1,4.498443604E-1,1.180618286E1
3.702070665E1,3.948211670E-1,1.842498779E-1,1.303131104E1
3.707070665E1,2.457427979E0,-3.302154541E-1,1.127497864E1
3.712070665E1,1.363983154E-1,-1.787445068E0,1.564187622E1
3.717070665E1,9.044799805E-1,-1.098312378E0,7.702499390E0
3.722070665E1,1.107879639E0,-7.824554443E-1,7.207183838E0
3.727070665E1,1.138977051E0,3.349914551E-1,7.697708130E0
3.732070665E1,6.747741699E-1,9.475555420E-1,6.953536987E0
3.737070665E1,7.417755127E-1,1.052841187E0,9.025726318E0
3.742070665E1,1.337585449E0,1.136596680E0,1.038723755E1
3.747070665E1,1.237091064E0,3.397827148E-1,1.351945496E1
3.752070665E1,1.402191162E0,6.484527588E-1,1.281834412E1
3.757070665E1,1.311264038E0,-9.643096924E-1,1.303849792E1
3.762070665E1,-2.632141113E-2,-1.131805420E0,1.093041992E1
3.767070665E1,3.086700439E-1,-9.714813232E-1,8.535202026E0
3.772070665E1,6.197357178E-1,-2.871398926E-1,7.936996460E0
3.777070665E1,-3.349304199E-2,3.397827148E-1,6.623336792E0
3.782070665E1,1.196441650E-1,9.260253906E-1,7.262222290E0
3.787070665E1,2.751770020E-1,1.036087036E0,9.159729004E0
3.792070665E1,3.589172363E-1,5.001068115E-1,1.148075867E1
3.797070665E1,1.074371338E0,-2.775726318E-1,1.312702942E1
3.802070665E1,7.441711426E-1,3.637084961E-1,1.270588684E1
3.807070665E1,2.340179443E0,-2.943115234E-1,1.373480225E1
3.812070665E1,8.327026367E-1,-1.493118286E0,1.175115967E1
3.817070665E1,1.500305176E0,-8.542327881E-1,9.906280518E0
3.822070665E1,9.427795410E-1,1.986083984E-1,6.738189697E0
3.827070665E1,2.751770020E-1,7.728881836E-1,5.046463013E0
3.832070665E1,-2.153015137E-2,1.071990967E0,6.790832520E0
3.837070665E1,1.344772339E0,1.347152710E0,9.023330688E0
3.842070665E1,9.068756104E-1,8.638153076E-1,1.128454590E1
3.847070665E1,1.246658325E0,2.608184814E-1,1.435693359E1
3.852070665E1,9.092712402E-1,1.052841187E0,1.217707825E1
3.857070665E1,3.852386475E-1,-1.050445557E0,1.465603638E1
3.862070665E1,-4.402770996E-1,-9.858398438E-1,9.647857666E0
3.867070665E1,-8.853149414E-2,-3.397827148E-1,8.090133667E0
3.872070665E1,3.110656738E-1,4.929199219E-1,6.503692627E0
3.877070665E1,6.700134277E-2,1.320831299E0,6.606582642E0
3.882070665E1,5.264282227E-2,1.050445557E0,7.738388062E0
3.887070665E1,3.780670166E-1,8.015899658E-1,1.032502747E1
3.892070665E1,6.101684570E-1,2.105712891E-1,1.241635132E1
3.897070665E1,5.407714844E-1,1.842498779E-1,1.234696960E1
3.902070665E1,3.972015381E-1,5.527496338E-1,1.134915161E1
3.907070665E1,4.977111816E-1,-2.560272217E-1,1.410568237E1
3.912070665E1,5.216369629E-1,-9.858398438E-1,9.018554688E0
3.917070665E1,8.997039795E-1,-6.867370605E-1,9.372680664E0
3.922070665E1,7.346038818E-1,4.953155518E-1,7.061218262E0
3.927070665E1,-3.972015381E-1,8.398742676E-1,6.348159790E0
3.932070665E1,4.833526611E-1,1.316055298E0,8.111663818E0
3.937070665E1,1.069595337E0,1.220336914E0,1.024606323E1
3.942070665E1,1.172485352E0,1.009765625E0,1.296191406E1
3.947070665E1,1.548156738E0,7.944183350E-1,1.332324219E1
3.952070665E1,2.746963501E0,-7.034912109E-1,1.378744507E1
3.957070665E1,3.111267090E-2,-9.140625000E-1,1.113140869E1
3.962070665E1,2.584228516E-1,-1.531372070E-1,8.638092041E0
3.967070665E1,-2.129669189E-1,8.135986328E-2,7.630706787E0
3.972070665E1,4.570312500E-1,1.134201050E0,7.142578125E0
3.977070665E1,1.507415771E-1,1.155731201E0,7.049255371E0
3.982070665E1,9.116668701E-1,1.373474121E0,8.657226562E0
3.987070665E1,4.139556885E-1,1.531372070E-1,1.185882568E1
3.992070665E1,1.378265381E0,2.919311523E-1,1.275373840E1
3.997070665E1,-9.571838379E-2,1.842498779E-1,1.269871521E1
4.002070665E1,2.158325195E0,2.321014404E-1,1.248814392E1
4.007070665E1,-2.847442627E-1,-1.490722656E0,1.202632141E1
4.012070665E1,7.800598145E-1,-6.125640869E-1,8.264816284E0
4.017070665E1,5.647125244E-1,3.493499756E-1,8.135604858E0
4.022070665E1,-1.818542480E-1,6.436767578E-1,5.984451294E0
4.027070665E1,-2.727813721E-1,1.165298462E0,7.149749756E0
4.032070665E1,2.751770020E-1,9.643096924E-1,9.650253296E0
4.037070665E1,5.694885254E-1,1.019348145E0,1.169612122E1
4.042070665E1,1.067199707E0,4.522399902E-1,1.418943787E1
4.047070665E1,6.508483887E-1,2.943115234E-1,1.232781982E1
4.052070665E1,7.298126221E-1,-1.579284668E-1,1.386161804E1
4.057070665E1,-5.407714844E-1,7.656860352E-2,8.676376343E0
4.062070665E1,-5.431671143E-1,-3.302154541E-1,8.094924927E0
4.067070665E1,-5.981445312E-2,2.919311523E-1,7.412963867E0
4.072070665E1,-1.890258789E-1,9.140625000E-1,6.716659546E0
4.077070665E1,4.761657715E-1,1.402191162E0,7.436889648E0
4.082070665E1,8.781585693E-1,1.122238159E0,1.041835022E1
4.087070665E1,1.153335571E0,8.997039795E-1,1.244267273E1
4.092070665E1,7.633056641E-1,6.436767578E-1,1.192103577E1
4.097070665E1,2.074584961E0,1.148529053E-1,1.135154724E1
4.102070665E1,4.791259766E-3,-9.906311035E-1,1.493600464E1
4.107070665E1,6.676025391E-1,-5.910339355E-1,8.413162231E0
4.112070665E1,1.641479492E0,1.076812744E-1,8.853439331E0
4.117070665E1,5.407714844E-1,9.403839111E-1,6.642471313E0
4.122070665E1,-1.674957275E-1,1.373474121E0,7.468002319E0
4.127070665E1,3.182525635E-1,1.440475464E0,9.219543457E0
4.132070665E1,8.063812256E-1,1.749160767E0,1.039920044E1
4.137070665E1,6.077728271E-1,1.155731201E0,1.215553284E1
4.142070665E1,1.237091064E0,9.427795410E-1,1.297387695E1
4.147070665E1,1.179656982E0,-1.052856445E-1,1.261495972E1
4.152070665E1,4.689941406E-1,-1.007385254E0,1.271067810E1
4.157070665E1,9.643096924E-1,-1.363983154E-1,9.370300293E0
4.162070665E1,3.517456055E-1,3.325958252E-1,6.728622437E0
4.167070665E1,-8.853149414E-2,1.009765625E0,6.190231323E0
4.172070665E1,-2.967071533E-1,1.189239502E0,6.922439575E0
4.177070665E1,4.139556885E-1,1.572082520E0,8.946762085E0
4.182070665E1,9.116668701E-1,8.997039795E-1,1.081317139E1
4.187070665E1,1.277770996E0,5.120697021E-1,1.249291992E1
4.192070665E1,-2.033843994E-1,9.451599121E-1,1.119841003E1
4.197070665E1,1.629516602E0,2.225341797E-1,1.522552490E1
4.202070665E1,1.842498779E-1,-1.153335571E0,1.090647888E1
4.207070665E1,1.639083862E0,-1.627044678E-1,7.822143555E0
4.212070665E1,9.930267334E-1,7.920227051E-1,7.946563721E0
4.217070665E1,2.153472900E-1,1.222732544E0,6.367294312E0
4.222070665E1,-3.349304199E-2,1.617553711E0,8.114059448E0
4.227070665E1,1.031311035E0,1.947753906E0,9.219543457E0
4.232070665E1,1.182052612E0,1.698898315E0,1.143290710E1
4.237070665E1,1.256225586E0,8.111724854E-1,1.315095520E1
4.242070665E1,1.488342285E0,1.483612061E-1,1.286860657E1
4.247070665E1,-1.004943848E-1,-5.288085938E-1,1.305046082E1
4.252070665E1,-3.445739746E-1,-1.028900146E-1,8.571090698E0
4.257070665E1,-2.395629883E-3,6.221008301E-2,8.114059448E0
4.262070665E1,3.086700439E-1,7.513427734E-1,6.671188354E0
4.267070665E1,-2.632141113E-2,1.179656982E0,7.326828003E0
4.272070665E1,3.972015381E-1,1.634292603E0,7.855636597E0
4.277070665E1,3.588867188E-2,1.378265381E0,1.009771729E1
4.282070665E1,6.364898682E-1,7.872314453E-1,1.256950378E1
4.287070665E1,6.149597168E-1,1.057632446E0,1.216032410E1
4.292070665E1,1.789825439E0,-8.613586426E-2,1.269152832E1
4.297070665E1,-4.546356201E-1,-1.198806763E0,1.336869812E1
4.302070665E1,8.949127197E-1,-6.986999512E-1,9.044876099E0
4.307070665E1,1.055236816E0,2.608184814E-1,8.255233765E0
4.312070665E1,-1.052856445E-1,1.304092407E0,6.139984131E0
4.317070665E1,-7.752685547E-1,1.153335571E0,8.346160889E0
4.322070665E1,6.843414307E-1,1.689331055E0,8.743377686E0
4.327070665E1,2.775726318E-1,1.402191162E0,1.067916870E1
4.332070665E1,1.873580933E0,1.024124146E0,1.249053955E1
4.337070665E1,2.823486328E-1,1.294509888E0,1.217228699E1
4.342070665E1,1.670196533E0,-4.019927979E-1,1.468235779E1
4.347070665E1,5.981445312E-2,-5.312042236E-1,1.019342041E1
4.352070665E1,7.417297363E-2,-2.297058105E-1,8.140380859E0
4.357070665E1,-1.818542480E-1,5.694885254E-1,6.809967041E0
4.362070665E1,-8.542327881E-1,1.215560913E0,6.137588501E0
4.367070665E1,-4.283142090E-1,1.117446899E0,6.778869629E0
4.372070665E1,6.795654297E-1,1.739578247E0,9.925430298E0
4.377070665E1,7.561340332E-1,8.661956787E-1,1.293321228E1
4.382070665E1,1.459625244E0,3.948211670E-1,1.424208069E1
4.387070665E1,1.907073975E0,9.284210205E-1,1.163629150E1
4.392070665E1,4.953155518E-1,-6.388854980E-1,1.330169678E1
4.397070665E1,8.303070068E-1,-8.733825684E-1,7.357925415E0
4.402070665E1,1.043273926E0,-4.977111816E-1,9.339187622E0
4.407070665E1,7.082824707E-1,3.086700439E-1,7.479965210E0
4.412070665E1,4.115600586E-1,1.646255493E0,6.719039917E0
4.417070665E1,4.187469482E-1,1.593612671E0,7.992034912E0
4.422070665E1,1.093521118E0,1.536193848E0,1.070309448E1
4.427070665E1,9.810638428E-1,6.843414307E-1,1.340220642E1
4.432070665E1,1.741973877E0,1.205978394E0,1.282073975E1
4.437070665E1,1.825729370E0,-1.012161255E0,1.489292908E1
4.442070665E1,7.896423340E-2,-8.159484863E-1,9.169296265E0
4.447070665E1,-1.459655762E-1,-7.226257324E-1,7.678573608E0
4.452070665E1,6.532440186E-1,3.589172363E-1,8.472991943E0
4.457070665E1,1.890258789E-1,7.441711426E-1,7.819747925E0
4.462070665E1,4.235229492E-1,1.325622559E0,7.795822144E0
4.467070665E1,3.684997559E-1,1.050445557E0,8.628524780E0
4.472070665E1,8.949127197E-1,4.115600586E-1,1.160279846E1
4.477070665E1,1.244262695E0,2.440643311E-1,1.237568665E1
4.482070665E1,4.450683594E-1,7.034912109E-1,1.097827148E1
4.487070665E1,1.773086548E0,-1.083953857E0,1.639083862E1
4.492070665E1,1.016952515E0,-1.227523804E0,9.494720459E0
4.497070665E1,9.834442139E-1,-6.747741699E-1,9.195617676E0
4.502070665E1,7.322082520E-1,7.848510742E-1,5.967697144E0
4.507070665E1,-3.397827148E-1,1.141372681E0,6.058624268E0
4.512070665E1,4.547119141E-2,1.272979736E0,7.879562378E0
4.517070665E1,1.186843872E0,1.811370850E0,1.057388306E1
4.522070665E1,8.614196777E-1,8.829498291E-1,1.268435669E1
4.527070665E1,1.351943970E0,1.071990967E0,1.352662659E1
4.532070665E1,1.550552368E0,-1.165298462E0,1.363670349E1
4.537070665E1,4.791259766E-3,-6.580200195E-1,1.128454590E1
4.542070665E1,-1.244201660E-1,-1.148529053E-1,8.434707642E0
4.547070665E1,8.111724854E-1,3.014984131E-1,6.061019897E0
4.552070665E1,-3.397827148E-1,3.804626465E-1,8.279159546E0
4.557070665E1,6.006011963E-1,7.848510742E-1,8.166702271E0
4.562070665E1,2.727813721E-1,1.136596680E0,9.595214844E0
4.567070665E1,6.460571289E-1,9.667053223E-1,1.133958435E1
4.572070665E1,1.074371338E0,7.178497314E-1,1.295474243E1
4.577070665E1,1.674957275E-1,1.409378052E0,1.201914978E1
4.582070665E1,1.397415161E0,2.105712891E-1,1.416311646E1
4.587070665E1,3.589172363E-1,-3.373870850E-1,9.688537598E0
4.592070665E1,1.727615356E0,-2.153015137E-2,9.329620361E0
4.597070665E1,6.125640869E-1,5.024871826E-1,7.252639771E0
4.602070665E1,1.411743164E-1,1.263412476E0,6.154342651E0
4.607070665E1,2.392883301E-1,1.325622559E0,7.508682251E0
4.612070665E1,1.134201050E0,2.177474976E0,9.351150513E0
4.617070665E1,1.050445557E0,1.519439697E0,1.133241272E1
4.622070665E1,1.665405273E0,1.136596680E0,1.272024536E1
4.627070665E1,1.012161255E0,9.212341309E-1,1.066481018E1
4.632070665E1,-2.153472900E-1,0.000000000E0,1.272741699E1
4.637070665E1,1.698913574E-1,1.316070557E-1,9.274581909E0
4.642070665E1,4.187469482E-1,3.804626465E-1,8.327026367E0
4.647070665E1,2.129669189E-1,8.757781982E-1,8.401199341E0
4.652070665E1,1.268157959E-1,1.402191162E0,8.212173462E0
4.657070665E1,3.565368652E-1,1.414154053E0,8.774475098E0
4.662070665E1,7.944183350E-1,1.215560913E0,1.100459290E1
4.667070665E1,6.676025391E-1,9.140625000E-1,1.204067993E1
4.672070665E1,2.129669189E-1,1.119842529E0,1.159562683E1
4.677070665E1,1.246658325E0,1.483612061E-1,1.173440552E1
4.682070665E1,1.435699463E-1,-7.226257324E-1,1.238046265E1
4.687070665E1,1.344772339E0,-1.818542480E-1,9.571289062E0
4.692070665E1,5.575256348E-1,2.344970703E-1,8.444274902E0
4.697070665E1,8.279113770E-1,1.378265381E0,6.156738281E0
4.702070665E1,1.914215088E-1,1.316055298E0,7.733596802E0
4.707070665E1,1.385437012E0,1.775466919E0,9.253051758E0
4.712070665E1,1.067199707E0,1.840087891E0,1.038485718E1
4.717070665E1,1.100692749E0,1.153335571E0,1.285902405E1
4.722070665E1,4.546356201E-1,1.605590820E0,1.091845703E1
4.727070665E1,1.170089722E0,2.679901123E-1,1.355773926E1
4.732070665E1,2.871398926E-1,-3.828582764E-1,9.896713257E0
4.737070665E1,8.207397461E-1,-4.067993164E-2,8.322235107E0
4.742070665E1,5.240325928E-1,5.216369629E-1,8.516052246E0
4.747070665E1,2.395629883E-3,9.020996094E-1,7.963317871E0
4.752070665E1,2.297058105E-1,1.385437012E0,7.855636597E0
4.757070665E1,1.698913574E-1,1.134201050E0,9.578475952E0
4.762070665E1,7.824554443E-1,8.207397461E-1,1.162432861E1
4.767070665E1,1.172485352E0,8.853149414E-2,1.280400085E1
4.772070665E1,5.623168945E-1,6.676025391E-1,1.078923035E1
4.777070665E1,6.747741699E-1,-1.435699463E-1,1.424687195E1
4.782070665E1,5.048828125E-1,-1.890258789E-1,9.221939087E0
4.787070665E1,1.517044067E0,1.818542480E-1,7.757537842E0
4.792070665E1,-6.221008301E-2,3.828582764E-1,7.317245483E0
4.797070665E1,-1.531372070E-1,9.810638428E-1,7.633102417E0
4.802070665E1,3.924255371E-1,1.146163940E0,8.573486328E0
4.807070665E1,1.579269409E0,1.758728027E0,1.031066895E1
4.812070665E1,1.631912231E0,1.179656982E0,1.231346130E1
4.817070665E1,1.251449585E0,6.508483887E-1,1.333041382E1
4.822070665E1,2.785247803E0,3.780670166E-1,1.257667542E1
4.827070665E1,-1.220397949E-1,-3.469543457E-1,1.124388123E1
4.832070665E1,3.349914551E-1,1.124572754E-1,9.920639038E0
4.837070665E1,2.991027832E-1,2.656097412E-1,7.154541016E0
4.842070665E1,7.489471436E-1,9.571228027E-1,7.020538330E0
4.847070665E1,2.464599609E-1,8.829498291E-1,7.762313843E0
4.852070665E1,1.316070557E-1,1.241882324E0,9.061614990E0
4.857070665E1,9.571838379E-2,1.182052612E0,1.031546021E1
4.862070665E1,1.162918091E0,8.303070068E-1,1.202632141E1
4.867070665E1,7.776641846E-1,1.043273926E0,1.289013672E1
4.872070665E1,2.462219238E0,5.838470459E-1,1.204786682E1
4.877070665E1,5.766754150E-1,-2.297058105E-1,1.076770020E1
4.882070665E1,9.140625000E-1,-1.651000977E-1,9.001800537E0
4.887070665E1,1.308868408E0,6.364898682E-1,8.623733521E0
4.892070665E1,9.092712402E-2,1.241882324E0,7.436889648E0
4.897070665E1,3.517456055E-1,1.844863892E0,7.633102417E0
4.902070665E1,6.532440186E-1,2.000396729E0,9.159729004E0
4.907070665E1,1.347152710E0,2.108078003E0,1.053080750E1
4.912070665E1,1.347152710E0,1.304092407E0,1.282553101E1
4.917070665E1,-1.698913574E-1,1.730010986E0,1.118165588E1
4.922070665E1,8.327026367E-1,3.014984131E-1,1.502931213E1
4.927070665E1,-3.206329346E-1,3.230285645E-1,8.965911865E0
4.932070665E1,-2.344970703E-1,1.387786865E-1,9.245864868E0
4.937070665E1,4.163513184E-1,8.781585693E-1,7.585250854E0
4.942070665E1,-9.567260742E-3,1.256225586E0,6.932006836E0
4.947070665E1,9.571838379E-2,1.658233643E0,7.372283936E0
4.952070665E1,4.953155518E-1,1.847259521E0,9.877578735E0
4.957070665E1,2.919311523E-1,1.239486694E0,1.160519409E1
4.962070665E1,1.184448242E0,1.318450928E0,1.211724854E1
4.967070665E1,3.995971680E-1,1.026519775E0,1.106440735E1
4.972070665E1,8.781585693E-1,6.221008301E-2,1.581655884E1
4.977070665E1,8.039855957E-1,2.488555908E-1,9.865615845E0
4.982070665E1,1.540985107E0,5.192413330E-1,8.659622192E0
4.987070665E1,6.077728271E-1,1.146163940E0,6.338592529E0
4.992070665E1,-3.613128662E-1,1.308868408E0,6.362518311E0
4.997070665E1,5.575256348E-1,1.703689575E0,7.724029541E0
5.002070665E1,6.963043213E-1,2.158325195E0,1.002114868E1
5.007070665E1,6.986999512E-1,2.055435181E0,1.143290710E1
5.012070665E1,1.000198364E0,1.813766479E0,1.268196106E1
5.017070665E1,1.672576904E0,1.294509888E0,1.177268982E1
5.022070665E1,-8.709869385E-1,2.512512207E-1,1.272503662E1
5.027070665E1,-4.833526611E-1,7.968139648E-1,9.492324829E0
5.032070665E1,4.307098389E-1,8.805541992E-1,8.511276245E0
5.037070665E1,-7.171630859E-3,1.026519775E0,7.149749756E0
5.042070665E1,-1.770629883E-1,1.519439697E0,6.910476685E0
5.047070665E1,4.929199219E-1,1.849655151E0,7.929809570E0
5.052070665E1,4.402770996E-1,1.363906860E0,1.093998718E1
5.057070665E1,-5.264282227E-2,7.776641846E-1,1.185882568E1
5.062070665E1,2.895355225E-1,1.138977051E0,1.216032410E1
5.067070665E1,1.935791016E0,6.508483887E-1,1.155972290E1
5.072070665E1,-7.034912109E-1,-2.847442627E-1,1.294277954E1
5.077070665E1,7.920227051E-1,-1.507415771E-1,9.114257812E0
5.082070665E1,3.086700439E-1,2.395629883E-3,9.851257324E0
5.087070665E1,-1.962127686E-1,8.638153076E-1,7.226318359E0
5.092070665E1,7.896423340E-2,1.533798218E0,6.774078369E0
5.097070665E1,2.608184814E-1,1.452438354E0,8.673980713E0
5.102070665E1,1.122238159E0,1.804183960E0,1.076290894E1
5.107070665E1,5.312042236E-1,9.882354736E-1,1.281834412E1
5.112070665E1,1.215560913E0,2.081756592E0,1.153819275E1
5.117070665E1,1.009765625E0,4.067840576E-1,1.427796936E1
5.122070665E1,-2.632141113E-1,-3.924255371E-1,1.015992737E1
5.127070665E1,-3.565368652E-1,-8.613586426E-2,9.233901978E0
5.132070665E1,4.547119141E-2,7.058868408E-1,7.226318359E0
5.137070665E1,-4.791259766E-3,1.026519775E0,6.551544189E0
5.142070665E1,-2.321014404E-1,1.600799561E0,6.644866943E0
5.147070665E1,1.914978027E-2,1.356735229E0,9.432510376E0
5.152070665E1,9.858398438E-1,1.045669556E0,1.231346130E1
5.157070665E1,7.680969238E-1,6.843414307E-1,1.282553101E1
5.162070665E1,3.613128662E-1,1.466796875E0,1.160997009E1
5.167070665E1,5.599212646E-1,-1.675415039E-2,1.402673340E1
5.172070665E1,1.196289062E-2,-7.106628418E-1,1.002832031E1
5.177070665E1,1.459625244E0,1.698913574E-1,9.135803223E0
5.182070665E1,5.216369629E-1,5.910339355E-1,7.869995117E0
5.187070665E1,5.192413330E-1,1.497909546E0,6.625732422E0
5.192070665E1,4.259185791E-1,1.552947998E0,7.793426514E0
5.197070665E1,1.179656982E0,1.433303833E0,9.779464722E0
5.202070665E1,9.523468018E-1,1.323226929E0,1.176789856E1
5.207070665E1,1.373474121E0,1.296905518E0,1.339981079E1
5.212070665E1,5.886383057E-1,5.072784424E-1,1.145683289E1
5.217070665E1,-9.930267334E-1,-3.804626465E-1,1.233978271E1
5.222070665E1,1.387786865E-1,2.057800293E-1,9.693328857E0
5.227070665E1,3.230285645E-1,4.115600586E-1,8.099700928E0
5.232070665E1,-2.153472900E-1,9.284210205E-1,6.876968384E0
5.237070665E1,-1.148529053E-1,1.648651123E0,6.675979614E0
5.242070665E1,1.722869873E-1,1.366302490E0,8.422729492E0
5.247070665E1,-3.780670166E-1,7.489471436E-1,1.169612122E1
5.252070665E1,7.154541016E-1,7.082824707E-1,1.282073975E1
5.257070665E1,1.316070557E-1,1.306488037E0,1.138743591E1
5.262070665E1,1.014556885E0,5.982055664E-1,1.168176270E1
5.267070665E1,-5.383911133E-1,-1.210769653E0,1.130848694E1
5.272070665E1,3.684997559E-1,-2.847442627E-1,9.473190308E0
5.277070665E1,5.814514160E-1,6.843414307E-1,8.209777832E0
5.282070665E1,-1.220397949E-1,1.256225586E0,6.534805298E0
5.287070665E1,1.148529053E-1,1.617553711E0,7.752746582E0
5.292070665E1,8.638153076E-1,1.648651123E0,1.006660461E1
5.297070665E1,2.153472900E-1,1.251449585E0,1.172244263E1
5.302070665E1,1.081558228E0,6.436767578E-1,1.456750488E1
5.307070665E1,1.423736572E0,3.278198242E-1,1.285902405E1
5.312070665E1,-5.048828125E-1,-7.082824707E-1,1.210528564E1
5.317070665E1,-2.536315918E-1,2.871704102E-2,8.035095215E0
5.322070665E1,6.340942383E-1,6.939697266E-2,7.939392090E0
5.327070665E1,4.402770996E-1,2.871398926E-1,7.446456909E0
5.332070665E1,1.962127686E-1,1.093521118E0,7.456039429E0
5.337070665E1,2.584228516E-1,1.210769653E0,7.867599487E0
5.342070665E1,1.603240967E-1,7.106628418E-1,1.159800720E1
5.347070665E1,1.117446899E0,2.249298096E-1,1.273460388E1
5.352070665E1,4.402770996E-1,6.484527588E-1,1.335194397E1
5.357070665E1,1.588836670E0,8.350982666E-1,1.049731445E1
5.362070665E1,-2.775726318E-1,-8.566284180E-1,1.266520691E1
5.367070665E1,1.014556885E0,-4.067993164E-2,8.432312012E0
5.372070665E1,1.294509888E0,5.096740723E-1,8.338989258E0
5.377070665E1,1.100769043E-1,8.925170898E-1,7.226318359E0
5.382070665E1,1.172485352E-1,1.629516602E0,7.795822144E0
5.387070665E1,3.349914551E-1,1.600799561E0,8.901306152E0
5.392070665E1,8.518524170E-1,1.753936768E0,1.159323120E1
5.397070665E1,1.421340942E0,8.159484863E-1,1.328733826E1
5.402070665E1,1.651000977E-1,1.028915405E0,1.110748291E1
5.407070665E1,2.368927002E-1,-4.450683594E-1,1.406501770E1
5.412070665E1,-1.004943848E-1,-4.211425781E-1,8.695510864E0
5.417070665E1,-5.503845215E-2,-3.828430176E-2,8.413162231E0
5.422070665E1,7.728881836E-1,8.542327881E-1,7.709671021E0
5.427070665E1,-1.914978027E-2,1.208374023E0,6.781265259E0
5.432070665E1,1.316070557E-1,1.320831299E0,7.491928101E0
5.437070665E1,4.791259766E-3,1.339981079E0,9.487548828E0
5.442070665E1,-4.307556152E-2,2.871704102E-2,1.174636841E1
5.447070665E1,1.340026855E-1,1.938171387E-1,1.293559265E1
5.452070665E1,8.350982666E-1,3.708801270E-1,1.116729736E1
5.457070665E1,3.111267090E-2,-7.896270752E-1,1.542413330E1
5.462070665E1,8.231353760E-1,-3.373870850E-1,8.362915039E0
5.467070665E1,8.566284180E-1,7.177734375E-2,1.010009766E1
5.472070665E1,-3.541412354E-1,8.781585693E-1,5.996414185E0
5.477070665E1,-1.866455078E-1,1.674972534E0,6.675979614E0
5.482070665E1,-2.273254395E-1,1.694122314E0,8.087738037E0
5.487070665E1,8.542327881E-1,1.916656494E0,1.111227417E1
5.492070665E1,9.379882812E-1,1.505081177E0,1.321076965E1
5.497070665E1,4.163513184E-1,1.170089722E0,1.303610229E1
5.502070665E1,1.849655151E0,-2.991027832E-1,1.400997925E1
5.507070665E1,-1.105484009E0,-1.722869873E-1,9.083160400E0
5.512070665E1,-2.273254395E-1,-4.547119141E-2,9.662216187E0
5.517070665E1,4.043884277E-1,4.378814697E-1,8.102096558E0
5.522070665E1,-1.244201660E-1,1.239486694E0,6.053848267E0
5.527070665E1,-3.588867188E-2,1.689331055E0,6.886550903E0
5.532070665E1,6.197357178E-1,1.744369507E0,9.198013306E0
5.537070665E1,9.567260742E-3,8.685913086E-1,1.182533264E1
5.542070665E1,9.068756104E-1,7.585296631E-1,1.259103394E1
5.547070665E1,-2.392578125E-2,1.016952515E0,1.204307556E1
5.552070665E1,1.052841187E0,5.503845215E-2,1.465126038E1
5.557070665E1,-4.043884277E-1,-7.920227051E-1,1.056671143E1
5.562070665E1,1.378265381E0,4.791259766E-3,8.080566406E0
5.567070665E1,6.077728271E-1,7.010955811E-1,7.329208374E0
5.572070665E1,-2.057800293E-1,9.810638428E-1,5.594421387E0
5.577070665E1,0.000000000E0,1.387832642E0,7.716857910E0
5.582070665E1,3.948211670E-1,1.454833984E0,9.284149170E0
5.587070665E1,5.862426758E-1,1.476364136E0,1.193539429E1
5.592070665E1,1.617553711E0,8.422698975E-1,1.470388794E1
5.597070665E1,7.896270752E-1,1.780258179E0,1.076770020E1
5.602070665E1,-4.785614014E-1,-6.484527588E-1,1.460578918E1
5.607070665E1,-1.282546997E0,-4.713897705E-1,8.896514893E0
5.612070665E1,-2.656097412E-1,-2.632141113E-2,9.226730347E0
5.617070665E1,-1.938171387E-1,7.058868408E-1,6.530014038E0
5.622070665E1,-3.684997559E-1,9.643096924E-1,6.731002808E0
5.627070665E1,6.771697998E-1,1.361511230E0,7.798202515E0
5.632070665E1,4.713897705E-1,1.488342285E0,1.070069885E1
5.637070665E1,1.016952515E0,1.009765625E0,1.254795837E1
5.642070665E1,-1.340026855E-1,1.107879639E0,1.171525574E1
5.647070665E1,1.203582764E0,5.958099365E-1,1.104766846E1
5.652070665E1,-5.790557861E-1,-1.797012329E0,1.580937195E1
5.657070665E1,5.982055664E-1,1.340026855E-1,6.417556763E0
5.662070665E1,1.325622559E0,5.335998535E-1,9.099899292E0
5.667070665E1,4.857482910E-1,6.316986084E-1,7.075576782E0
5.672070665E1,-4.594268799E-1,1.146163940E0,6.620941162E0
5.677070665E1,8.733825684E-1,1.591232300E0,8.532806396E0
5.682070665E1,8.255310059E-1,1.751541138E0,1.027957153E1
5.687070665E1,1.153335571E0,8.661956787E-1,1.367736816E1
5.692070665E1,1.842498779E-1,1.517044067E0,1.214356995E1
5.697070665E1,1.179656982E0,-1.674957275E-1,1.355055237E1
5.702070665E1,2.395629883E-3,-8.303070068E-1,1.041595459E1
5.707070665E1,4.737854004E-1,-1.986083984E-1,7.989639282E0
5.712070665E1,2.608184814E-1,-2.201385498E-1,9.190826416E0
5.717070665E1,1.340026855E-1,1.036087036E0,6.410369873E0
5.722070665E1,6.221008301E-2,1.478759766E0,7.369888306E0
5.727070665E1,5.168457031E-1,1.634292603E0,9.159729004E0
5.732070665E1,3.948211670E-1,7.752685547E-1,1.238046265E1
5.737070665E1,8.805541992E-1,5.383911133E-1,1.345722961E1
5.742070665E1,5.934143066E-1,9.188385010E-1,1.090887451E1
5.747070665E1,1.651000977E-1,-3.230285645E-1,1.452922058E1
5.752070665E1,2.033843994E-1,-8.733825684E-1,8.963516235E0
5.757070665E1,1.284942627E0,-3.876342773E-1,9.473190308E0
5.762070665E1,1.914215088E-1,6.101684570E-1,7.092330933E0
5.767070665E1,-1.722869873E-1,1.229904175E0,6.405578613E0
5.772070665E1,7.609100342E-1,1.962112427E0,8.264816284E0
5.777070665E1,3.325958252E-1,1.569686890E0,9.698104858E0
5.782070665E1,4.067840576E-1,1.371093750E0,1.279681396E1
5.787070665E1,1.000198364E0,1.189239502E0,1.315574646E1
5.792070665E1,1.143768311E0,-2.129669189E-1,1.317008972E1
5.797070665E1,1.100769043E-1,-3.732757568E-1,1.225842285E1
5.802070665E1,-3.948211670E-1,4.402770996E-1,8.401199341E0
5.807070665E1,1.507415771E-1,1.579284668E-1,8.831909180E0
5.812070665E1,-2.153015137E-2,9.978027344E-1,6.228515625E0
5.817070665E1,-2.632141113E-1,1.392623901E0,6.865005493E0
5.822070665E1,5.934143066E-1,1.818542480E0,8.073379517E0
5.827070665E1,-7.656860352E-2,9.236297607E-1,1.124388123E1
5.832070665E1,6.245269775E-1,8.350982666E-1,1.237806702E1
5.837070665E1,2.392578125E-2,1.191619873E0,1.193061829E1
5.842070665E1,1.737182617E0,4.498443604E-1,1.418704224E1
5.847070665E1,6.197357178E-1,-1.550552368E0,1.299063110E1
5.852070665E1,1.048049927E0,2.727813721E-1,7.271789551E0
5.857070665E1,5.216369629E-1,2.392883301E-1,8.784057617E0
5.862070665E1,3.589172363E-1,1.217941284E0,6.407974243E0
5.867070665E1,2.871704102E-2,1.622329712E0,7.951354980E0
5.872070665E1,9.643096924E-1,2.002792358E0,9.049652100E0
5.877070665E1,5.479583740E-1,1.842468262E0,1.053799438E1
5.882070665E1,1.296905518E0,9.379882812E-1,1.318206787E1
5.887070665E1,-1.196441650E-1,1.466796875E0,1.120080566E1
5.892070665E1,6.340942383E-1,-1.292114258E-1,1.532603455E1
5.897070665E1,5.503845215E-2,-1.986083984E-1,8.592620850E0
5.902070665E1,7.393798828E-1,3.613128662E-1,9.975677490E0
5.907070665E1,1.627044678E-1,7.561340332E-1,6.850646973E0
5.912070665E1,-7.417297363E-2,1.677368164E0,6.106491089E0
5.917070665E1,3.062744141E-1,1.741973877E0,7.424926758E0
5.922070665E1,-1.124572754E-1,1.902297974E0,8.673980713E0
5.927070665E1,1.986083984E-1,1.052841187E0,1.297627258E1
5.932070665E1,1.071990967E0,7.704925537E-1,1.327537537E1
5.937070665E1,1.694122314E0,-3.349304199E-2,1.225125122E1
5.942070665E1,2.344970703E-1,-1.610366821E0,1.496949768E1
5.947070665E1,1.014556885E0,-5.335998535E-1,8.252853394E0
5.952070665E1,9.738769531E-1,2.871704102E-2,9.087936401E0
5.957070665E1,5.001068115E-1,1.294509888E0,4.912460327E0
5.962070665E1,-1.028900146E-1,1.691726685E0,6.781265259E0
5.967070665E1,6.867370605E-1,2.048263550E0,8.396408081E0
5.972070665E1,1.191619873E0,2.612960815E0,1.033938599E1
5.977070665E1,1.124633789E0,2.148757935E0,1.291885376E1
5.982070665E1,8.159484863E-1,1.890335083E0,1.367259216E1
5.987070665E1,1.978866577E0,2.010040283E-1,1.482832336E1
5.992070665E1,-6.819610596E-1,-8.661956787E-1,1.031066895E1
5.997070665E1,-1.914978027E-2,-1.914978027E-2,8.386840820E0
6.002070665E1,2.608184814E-1,1.459655762E-1,8.003997803E0
6.007070665E1,-5.240325928E-1,1.079162598E0,5.953338623E0
6.012070665E1,-6.700134277E-2,1.557723999E0,6.321838379E0
6.017070665E1,1.770629883E-1,1.921432495E0,8.396408081E0
6.022070665E1,8.350982666E-1,1.751541138E0,1.237806702E1
6.027070665E1,8.973083496E-1,1.426116943E0,1.265324402E1
6.032070665E1,-2.368927002E-1,1.275375366E0,1.141615295E1
6.037070665E1,9.188385010E-1,-1.100769043E-1,1.546720886E1
6.042070665E1,2.129669189E-1,-3.924255371E-1,8.432312012E0
6.047070665E1,1.890335083E0,2.536315918E-1,9.530609131E0
6.052070665E1,7.633056641E-1,7.896270752E-1,7.420150757E0
6.057070665E1,-6.077728271E-1,1.060012817E0,6.738189697E0
6.062070665E1,5.024871826E-1,1.916656494E0,8.023132324E0
6.067070665E1,7.704925537E-1,1.919036865E0,9.456436157E0
6.072070665E1,1.158126831E0,2.060226440E0,1.186122131E1
6.077070665E1,1.447662354E0,1.375869751E0,1.332084656E1
6.082070665E1,1.526626587E0,6.532440186E-1,1.251924133E1
6.087070665E1,3.756713867E-1,-4.833526611E-1,1.378027344E1
6.092070665E1,3.397827148E-1,2.775726318E-1,8.042282104E0
6.097070665E1,2.368927002E-1,3.062744141E-1,8.094924927E0
6.102070665E1,5.216369629E-1,1.184448242E0,6.398406982E0
6.107070665E1,-1.938171387E-1,1.488342285E0,7.058822632E0
6.112070665E1,3.972015381E-1,1.782653809E0,8.977874756E0
6.117070665E1,8.422698975E-1,1.452438354E0,1.142094421E1
6.122070665E1,1.222732544E0,9.331970215E-1,1.244267273E1
6.127070665E1,7.250213623E-1,1.289733887E0,1.222492981E1
6.132070665E1,1.167694092E0,6.867370605E-1,1.265084839E1
6.137070665E1,-3.325958252E-1,-1.033706665E0,1.224885559E1
6.142070665E1,1.660614014E0,7.776641846E-1,7.219146729E0
6.147070665E1,1.055236816E0,5.718841553E-1,9.798614502E0
6.152070665E1,3.972015381E-1,1.088729858E0,6.467803955E0
6.157070665E1,-9.571838379E-2,1.763504028E0,7.056427002E0
6.162070665E1,7.441711426E-1,2.139190674E0,8.329421997E0
6.167070665E1,7.441711426E-1,2.172683716E0,1.065524292E1
6.172070665E1,1.325622559E0,1.672576904E0,1.280877686E1
6.177070665E1,-8.613586426E-2,2.263610840E0,1.088255310E1
6.182070665E1,4.235229492E-1,1.363983154E-1,1.523510742E1
6.187070665E1,-1.555328369E-1,4.450683594E-1,8.623733521E0
6.192070665E1,1.002593994E0,4.905242920E-1,7.606781006E0
6.197070665E1,5.335998535E-1,7.848510742E-1,9.358322144E0
6.202070665E1,1.220397949E-1,1.397415161E0,6.750152588E0
6.207070665E1,7.561340332E-1,2.014755249E0,8.044662476E0
6.212070665E1,3.948211670E-1,2.048263550E0,1.022453308E1
6.217070665E1,9.068756104E-1,1.562515259E0,1.235174561E1
6.222070665E1,1.672576904E0,1.368698120E0,1.244746399E1
6.227070665E1,2.294723511E0,5.742797852E-1,1.208135986E1
6.232070665E1,6.604156494E-1,-7.513427734E-1,1.290927124E1
6.237070665E1,9.714813232E-1,6.245269775E-1,7.396209717E0
6.242070665E1,1.177261353E0,7.657012939E-1,8.494522095E0
6.247070665E1,3.900299072E-1,1.349548340E0,7.336395264E0
6.252070665E1,2.871398926E-1,2.041076660E0,7.700103760E0
6.257070665E1,1.189239502E0,2.392822266E0,9.681365967E0
6.262070665E1,1.105484009E0,2.847457886E0,9.887145996E0
6.267070665E1,8.063812256E-1,2.074584961E0,1.196890259E1
6.272070665E1,-1.004943848E-1,2.440673828E0,1.063609314E1
6.277070665E1,2.469390869E0,1.057632446E0,1.439044189E1
6.282070665E1,-7.465667725E-1,-1.746826172E-1,1.003788757E1
6.287070665E1,1.651000977E-1,6.245269775E-1,8.697906494E0
6.292070665E1,5.718841553E-1,7.680969238E-1,8.501693726E0
6.297070665E1,-1.938171387E-1,1.552947998E0,6.640075684E0
6.302070665E1,9.809875488E-2,1.945358276E0,7.685745239E0
6.307070665E1,4.833526611E-1,2.313858032E0,9.403793335E0
6.312070665E1,4.307556152E-2,1.636688232E0,1.164347839E1
6.317070665E1,1.375869751E0,1.306488037E0,1.275852966E1
6.322070665E1,8.949127197E-1,1.842468262E0,1.099980164E1
6.327070665E1,6.580200195E-1,7.657012939E-1,1.333520508E1
6.332070665E1,9.690856934E-1,-1.794586182E-1,8.891723633E0
6.337070665E1,1.304092407E0,-2.416687012E-1,1.150468445E1
6.342070665E1,9.810638428E-1,8.327026367E-1,7.369888306E0
6.347070665E1,4.378814697E-1,1.938186646E0,5.742767334E0
6.352070665E1,3.780670166E-1,1.816146851E0,8.135604858E0
6.357070665E1,1.249053955E0,2.289932251E0,1.002832031E1
6.362070665E1,1.002593994E0,1.957336426E0,1.324667358E1
6.367070665E1,1.387832642E0,1.806579590E0,1.329452515E1
6.372070665E1,-4.547119141E-2,1.785049438E0,1.015274048E1
6.377070665E1,-7.896423340E-2,1.507415771E-1,1.421096802E1
6.382070665E1,-2.033843994E-1,4.474639893E-1,8.542373657E0
6.387070665E1,3.254241943E-1,2.703857422E-1,7.776672363E0
6.392070665E1,8.279113770E-1,1.203582764E0,7.171295166E0
6.397070665E1,1.531372070E-1,1.502685547E0,6.687942505E0
6.402070665E1,3.995971680E-1,1.897506714E0,7.424926758E0
6.407070665E1,5.527496338E-1,1.696517944E0,1.042314148E1
6.412070665E1,7.776641846E-1,1.344772339E0,1.210768127E1
6.417070665E1,1.134201050E0,1.418945312E0,1.370130920E1
6.422070665E1,2.399993896E0,1.562515259E0,1.071984863E1
6.427070665E1,-3.158569336E-1,-2.919311523E-1,1.399562073E1
6.432070665E1,5.479583740E-1,4.283142090E-1,8.779266357E0
6.437070665E1,1.560119629E0,9.116668701E-1,9.655044556E0
6.442070665E1,2.943115234E-1,1.861618042E0,5.570495605E0
6.447070665E1,-4.450683594E-1,2.021942139E0,5.855239868E0
6.452070665E1,6.676025391E-1,2.277969360E0,8.654846191E0
6.457070665E1,6.436767578E-1,2.354537964E0,1.046380615E1
6.462070665E1,9.020996094E-1,2.356933594E0,1.277049255E1
6.467070665E1,7.369842529E-1,2.108078003E0,1.355534363E1
6.472070665E1,1.954940796E0,1.086334229E0,1.247618103E1
6.477070665E1,-5.001068115E-1,-1.435699463E-1,1.076530457E1
6.482070665E1,4.713897705E-1,8.709869385E-1,9.073577881E0
6.487070665E1,8.255310059E-1,6.963043213E-1,7.743179321E0
6.492070665E1,5.264282227E-2,1.399795532E0,6.187835693E0
6.497070665E1,-2.344970703E-1,1.887939453E0,6.884155273E0
6.502070665E1,5.958099365E-1,2.263610840E0,9.090332031E0
6.507070665E1,6.364898682E-1,1.794616699E0,1.188275146E1
6.512070665E1,1.064804077E0,1.651046753E0,1.236610413E1
6.517070665E1,1.938171387E-1,2.230117798E0,1.130130005E1
6.522070665E1,1.875976562E0,1.002593994E0,1.266281128E1
6.527070665E1,2.297058105E-1,-7.489471436E-1,1.227517700E1
6.532070665E1,1.567306519E0,1.091125488E0,7.135391235E0
6.537070665E1,8.781585693E-1,1.493118286E0,7.774276733E0
6.542070665E1,-5.551300049E-1,1.505081177E0,6.754943848E0
6.547070665E1,-1.196289062E-2,2.203796387E0,7.604385376E0
6.552070665E1,9.284210205E-1,2.263610840E0,9.253051758E0
6.557070665E1,1.684539795E0,2.445465088E0,1.185165405E1
6.562070665E1,1.818542480E0,1.739578247E0,1.399801636E1
6.567070665E1,7.896270752E-1,2.505279541E0,1.092323303E1
6.572070665E1,1.507476807E0,4.402770996E-1,1.617787170E1
6.577070665E1,-3.110656738E-1,4.211425781E-1,8.204986572E0
6.582070665E1,-2.871704102E-2,7.920227051E-1,8.070983887E0
6.587070665E1,4.187469482E-1,1.198806763E0,6.527618408E0
6.592070665E1,-1.292114258E-1,1.304092407E0,6.778869629E0
6.597070665E1,4.474639893E-1,1.954940796E0,7.077972412E0
6.602070665E1,2.656097412E-1,1.804183960E0,9.667007446E0
6.607070665E1,6.747741699E-1,1.339981079E0,1.177986145E1
6.612070665E1,1.074371338E0,1.385437012E0,1.252642822E1
6.617070665E1,2.084152222E0,1.514663696E0,1.096870422E1
6.622070665E1,-3.900299072E-1,-2.584228516E-1,1.429951477E1
6.627070665E1,-7.896423340E-2,4.474639893E-1,8.461029053E0
6.632070665E1,5.216369629E-1,3.900299072E-1,1.042074585E1
6.637070665E1,2.823486328E-1,1.462020874E0,6.955932617E0
6.642070665E1,-5.264282227E-2,1.907073975E0,7.252639771E0
6.647070665E1,8.255310059E-1,2.033905029E0,8.657226562E0
6.652070665E1,8.997039795E-1,1.840087891E0,1.092562866E1
6.657070665E1,1.536193848E0,1.641479492E0,1.378984070E1
6.662070665E1,9.068756104E-1,2.088928223E0,1.136112976E1
6.667070665E1,6.077728271E-1,7.680969238E-1,1.245703125E1
6.672070665E1,-3.565368652E-1,1.603240967E-1,1.021496582E1
6.677070665E1,-1.316070557E-1,4.929199219E-1,9.162124634E0
6.682070665E1,5.335998535E-1,9.164581299E-1,7.195220947E0
6.687070665E1,-3.014984131E-1,1.234695435E0,7.130615234E0
6.692070665E1,1.124572754E-1,1.811370850E0,7.142578125E0
6.697070665E1,2.536315918E-1,2.055435181E0,8.781661987E0
6.702070665E1,1.004943848E-1,1.402191162E0,1.145443726E1
6.707070665E1,1.071990967E0,1.014556885E0,1.290927124E1
6.712070665E1,8.542327881E-1,1.615158081E0,1.144247437E1
6.717070665E1,2.392883301E-1,9.475555420E-1,1.371565247E1
6.722070665E1,5.216369629E-1,-2.392578125E-2,1.035134888E1
6.727070665E1,1.596008301E0,3.972015381E-1,9.236297607E0
6.732070665E1,1.698913574E-1,1.196411133E0,7.085144043E0
6.737070665E1,1.579284668E-1,2.000396729E0,6.056228638E0
6.742070665E1,5.838470459E-1,2.014755249E0,8.358123779E0
6.747070665E1,9.044799805E-1,1.974075317E0,1.021496582E1
6.752070665E1,1.069595337E0,2.081756592E0,1.234936523E1
6.757070665E1,1.440475464E0,1.507476807E0,1.350509644E1
6.762070665E1,6.316986084E-1,2.349746704E0,9.908676147E0
6.767070665E1,-2.632141113E-2,3.756713867E-1,1.392382812E1
6.772070665E1,-3.278198242E-1,8.303070068E-1,9.111862183E0
6.777070665E1,3.254241943E-1,5.575256348E-1,8.523239136E0
6.782070665E1,3.493499756E-1,1.282546997E0,7.343566895E0
6.787070665E1,-4.067840576E-1,1.536193848E0,6.678375244E0
6.792070665E1,2.943115234E-1,2.184646606E0,8.157135010E0
6.797070665E1,-7.177734375E-2,1.318450928E0,1.057627869E1
6.802070665E1,9.882354736E-1,1.284942627E0,1.221057129E1
6.807070665E1,8.231353760E-1,1.055236816E0,1.244985962E1
6.812070665E1,1.617553711E0,1.576873779E0,9.908676147E0
6.817070665E1,-2.775726318E-1,-1.770629883E-1,1.420140076E1
6.822070665E1,4.642028809E-1,4.091796875E-1,8.666809082E0
6.827070665E1,4.091796875E-1,8.231353760E-1,7.657028198E0
6.832070665E1,2.823486328E-1,1.679763794E0,6.498901367E0
6.837070665E1,3.062744141E-1,1.928619385E0,7.161712646E0
6.842070665E1,8.566284180E-1,1.916656494E0,9.509078979E0
6.847070665E1,1.179656982E0,2.105682373E0,1.127976990E1
6.852070665E1,1.232299805E0,2.103286743E0,1.284466553E1
6.857070665E1,8.709869385E-1,2.313858032E0,1.252642822E1
6.862070665E1,1.244262695E0,1.117446899E0,1.340220642E1
6.867070665E1,-3.589172363E-1,-1.196289062E-2,1.071745300E1
6.872070665E1,-5.431671143E-1,4.307556152E-2,9.846466064E0
6.877070665E1,-1.076812744E-1,2.177429199E-1,8.432312012E0
6.882070665E1,1.938171387E-1,9.308013916E-1,6.754943848E0
6.887070665E1,-2.395629883E-3,1.191619873E0,5.764312744E0
6.892070665E1,2.991027832E-1,2.005187988E0,7.271789551E0
6.897070665E1,4.546356201E-1,1.629516602E0,1.022453308E1
6.902070665E1,1.249053955E0,1.205978394E0,1.302891541E1
6.907070665E1,1.268157959E-1,1.227523804E0,1.312463379E1
6.912070665E1,1.773086548E0,1.325622559E0,1.320359802E1
6.917070665E1,-9.595184326E-1,-8.494567871E-1,1.165783691E1
6.922070665E1,7.776641846E-1,5.431671143E-1,1.007617188E1
6.927070665E1,1.627044678E-1,7.274169922E-1,8.003997803E0
6.932070665E1,1.411743164E-1,1.899902344E0,5.347961426E0
6.937070665E1,-5.743408203E-2,1.643875122E0,7.298110962E0
6.942070665E1,4.259185791E-1,2.050643921E0,9.564117432E0
6.947070665E1,8.375549316E-2,1.761123657E0,1.116252136E1
6.952070665E1,1.028915405E0,1.631912231E0,1.294038391E1
6.957070665E1,1.316070557E-1,1.976470947E0,1.225604248E1
6.962070665E1,1.256225586E0,6.771697998E-1,1.371565247E1
6.967070665E1,-9.834442139E-1,-4.953155518E-1,1.088973999E1
6.972070665E1,-5.264282227E-2,2.799530029E-1,9.090332031E0
6.977070665E1,6.149597168E-1,5.910339355E-1,8.035095215E0
6.982070665E1,4.547119141E-2,1.040878296E0,6.934402466E0
6.987070665E1,7.322082520E-1,1.739578247E0,6.592224121E0
6.992070665E1,7.130584717E-1,2.081756592E0,8.149948120E0
6.997070665E1,2.943115234E-1,1.641479492E0,1.052842712E1
7.002070665E1,1.076766968E0,1.569686890E0,1.226560974E1
7.007070665E1,4.163513184E-1,2.038681030E0,1.237568665E1
7.012070665E1,1.797012329E0,7.322082520E-1,1.413679504E1
7.017070665E1,-4.211425781E-1,-9.331970215E-1,1.181097412E1
7.022070665E1,8.015899658E-1,4.067840576E-1,7.171295166E0
7.027070665E1,6.795654297E-1,8.494567871E-1,8.630905151E0
7.032070665E1,1.938171387E-1,1.529006958E0,6.582656860E0
7.037070665E1,1.100769043E-1,2.108078003E0,7.374679565E0
7.042070665E1,6.340942383E-1,2.466995239E0,9.738784790E0
7.047070665E1,9.092712402E-1,2.488540649E0,1.136590576E1
7.052070665E1,1.713256836E0,1.667800903E0,1.279681396E1
7.057070665E1,5.958099365E-1,2.282745361E0,1.086581421E1
7.062070665E1,1.301696777E0,1.459655762E-1,1.636451721E1
7.067070665E1,3.565368652E-1,-2.440643311E-1,9.616760254E0
7.072070665E1,2.392578125E-2,4.019927979E-1,7.802993774E0
7.077070665E1,2.177429199E-1,8.877410889E-1,7.271789551E0
7.082070665E1,3.995971680E-1,1.674972534E0,6.915252686E0
7.087070665E1,7.369842529E-1,1.981262207E0,7.049255371E0
7.092070665E1,1.081558228E0,2.045867920E0,9.107086182E0
7.097070665E1,9.499511719E-1,1.356735229E0,1.145443726E1
7.102070665E1,9.308013916E-1,8.925170898E-1,1.341416931E1
7.107070665E1,1.119842529E0,1.897506714E0,1.034417725E1
7.112070665E1,1.363983154E-1,9.092712402E-2,1.532363892E1
7.117070665E1,3.517456055E-1,-4.809570312E-1,9.722045898E0
7.122070665E1,1.519439697E0,4.331054688E-1,9.592819214E0
7.127070665E1,2.395629883E-3,1.019348145E0,6.845870972E0
7.132070665E1,-4.809570312E-1,1.954940796E0,5.460418701E0
7.137070665E1,-4.307556152E-2,1.962112427E0,8.322235107E0
7.142070665E1,8.446655273E-1,2.249252319E0,1.038485718E1
7.147070665E1,1.024124146E0,1.902297974E0,1.227996826E1
7.152070665E1,1.978866577E0,2.072189331E0,1.393580627E1
7.157070665E1,2.079360962E0,4.785614014E-1,1.280638123E1
7.162070665E1,3.900299072E-1,4.307556152E-2,1.244267273E1
7.167070665E1,1.890258789E-1,6.029968262E-1,8.776870728E0
7.172070665E1,4.307098389E-1,5.001068115E-1,6.781265259E0
7.177070665E1,2.153015137E-2,9.667053223E-1,5.994018555E0
7.182070665E1,-6.460571289E-2,1.328018188E0,6.807586670E0
7.187070665E1,7.633056641E-1,2.153533936E0,7.932205200E0
7.192070665E1,1.363983154E-1,1.404586792E0,1.143051147E1
7.197070665E1,7.609100342E-1,1.332809448E0,1.276809692E1
7.202070665E1,7.177734375E-2,1.622329712E0,1.276092529E1
7.207070665E1,1.371093750E0,6.006011963E-1,1.455075073E1
7.212070665E1,-4.331054688E-1,-9.930267334E-1,1.239721680E1
7.217070665E1,1.186843872E0,4.785614014E-1,7.209579468E0
7.222070665E1,3.278198242E-1,1.253845215E0,7.233505249E0
7.227070665E1,-5.024871826E-1,1.497909546E0,5.137390137E0
7.232070665E1,-3.373870850E-1,2.069793701E0,7.343566895E0
7.237070665E1,2.010040283E-1,2.041076660E0,9.461227417E0
7.242070665E1,6.700134277E-2,1.974075317E0,1.267478943E1
7.247070665E1,1.019348145E0,1.540985107E0,1.505325317E1
7.252070665E1,1.627044678E-1,2.699096680E0,1.164587402E1
7.257070665E1,-8.135986328E-2,7.393798828E-1,1.306242371E1
7.262070665E1,-3.900299072E-1,1.196441650E-1,1.021257019E1
7.267070665E1,2.153472900E-1,4.067840576E-1,7.800598145E0
7.272070665E1,2.177429199E-1,6.939239502E-1,5.726028442E0
7.277070665E1,4.791259766E-3,1.177261353E0,7.286148071E0
7.282070665E1,2.632141113E-1,1.993225098E0,6.874572754E0
7.287070665E1,9.092712402E-2,2.076965332E0,9.396621704E0
7.292070665E1,4.761657715E-1,1.741973877E0,1.286621094E1
7.297070665E1,7.202453613E-1,9.547424316E-1,1.541696167E1
7.302070665E1,1.887939453E0,1.739578247E0,1.184446716E1
7.307070665E1,-3.397827148E-1,3.206329346E-1,1.443110657E1
7.312070665E1,3.349304199E-2,3.230285645E-1,8.903686523E0
7.317070665E1,9.714813232E-1,7.322082520E-1,7.535003662E0
7.322070665E1,3.230285645E-1,1.634292603E0,6.324234009E0
7.327070665E1,-3.325958252E-1,1.928619385E0,6.068191528E0
7.332070665E1,1.914978027E-2,2.048263550E0,7.903488159E0
7.337070665E1,4.426727295E-1,2.165512085E0,1.033938599E1
7.342070665E1,9.714813232E-1,2.318649292E0,1.237806702E1
7.347070665E1,1.399795532E0,2.622528076E0,1.345005798E1
7.352070665E1,2.321044922E0,1.789825439E0,1.317727661E1
7.357070665E1,-7.585296631E-1,6.221313477E-1,1.220339966E1
7.362070665E1,-7.752685547E-1,1.313659668E0,8.647659302E0
7.367070665E1,-2.656097412E-1,1.043273926E0,7.896316528E0
7.372070665E1,5.910339355E-1,1.797012329E0,6.061019897E0
7.377070665E1,-1.794586182E-1,1.572082520E0,7.506286621E0
7.382070665E1,1.459655762E-1,2.421539307E0,7.941772461E0
7.387070665E1,-5.264282227E-2,1.897506714E0,9.899108887E0
7.392070665E1,1.127014160E0,1.406982422E0,1.262452698E1
7.397070665E1,-2.010040283E-1,1.904693604E0,1.193301392E1
7.402070665E1,2.163116455E0,1.686935425E0,1.314376831E1
7.407070665E1,-4.857482910E-1,-9.547424316E-1,1.378504944E1
7.412070665E1,1.232299805E0,1.115051270E0,7.585250854E0
7.417070665E1,1.615158081E0,1.493118286E0,6.936798096E0
7.422070665E1,4.547119141E-2,1.349548340E0,6.503692627E0
7.427070665E1,1.435852051E-2,2.210968018E0,7.470397949E0
7.432070665E1,4.594268799E-1,2.464614868E0,9.142974854E0
7.437070665E1,2.368927002E-1,2.641677856E0,1.116969299E1
7.442070665E1,1.251449585E0,2.301895142E0,1.361994934E1
7.447070665E1,-3.828582764E-1,2.751739502E0,1.205264282E1
7.452070665E1,5.096740723E-1,4.546356201E-1,1.550309753E1
7.457070665E1,-8.111724854E-1,8.159484863E-1,8.810379028E0
7.462070665E1,4.187469482E-1,4.235229492E-1,9.284149170E0
7.467070665E1,7.656860352E-2,7.298126221E-1,7.834106445E0
7.472070665E1,-2.129669189E-1,1.521835327E0,5.819351196E0
7.477070665E1,5.551300049E-1,2.333007812E0,6.159118652E0
7.482070665E1,1.124572754E-1,1.983642578E0,9.114257812E0
7.487070665E1,4.713897705E-1,1.320831299E0,1.147119141E1
7.492070665E1,2.632141113E-1,7.872314453E-1,1.291645813E1
7.497070665E1,5.192413330E-1,1.629516602E0,1.176312256E1
7.502070665E1,-5.001068115E-1,9.809875488E-2,1.544328308E1
7.507070665E1,-3.302154541E-1,4.019927979E-1,9.961318970E0
7.512070665E1,9.308013916E-1,6.963043213E-1,8.906082153E0
7.517070665E1,6.221008301E-2,1.294509888E0,6.369689941E0
7.522070665E1,-9.427795410E-1,1.837692261E0,5.752349854E0
7.527070665E1,-6.364898682E-1,2.285140991E0,7.537399292E0
7.532070665E1,-1.363983154E-1,2.404785156E0,1.038006592E1
7.537070665E1,3.110656738E-1,2.510070801E0,1.226081848E1
7.542070665E1,1.172485352E0,2.084152222E0,1.413919067E1
7.547070665E1,3.517456055E-1,1.538589478E0,1.148794556E1
7.552070665E1,-3.349304199E-2,1.507415771E-1,1.272264099E1
7.557070665E1,9.567260742E-3,1.028915405E0,7.738388062E0
7.562070665E1,4.665985107E-1,6.580200195E-1,9.580856323E0
7.567070665E1,5.790557861E-1,7.513427734E-1,7.475173950E0
7.572070665E1,3.828582764E-1,1.256225586E0,6.534805298E0
7.577070665E1,4.905242920E-1,1.909469604E0,7.259826660E0
7.582070665E1,5.048828125E-1,1.696517944E0,1.005224609E1
7.587070665E1,1.375869751E0,1.342376709E0,1.268913269E1
7.592070665E1,6.795654297E-1,1.435699463E0,1.236849976E1
7.597070665E1,1.031311035E0,1.311264038E0,1.129652405E1
7.602070665E1,-1.043273926E0,-9.260253906E-1,1.348117065E1
7.607070665E1,1.256225586E0,4.977111816E-1,8.410766602E0
7.612070665E1,1.282546997E0,1.198806763E0,9.145370483E0
7.617070665E1,5.886383057E-1,1.813766479E0,5.977264404E0
7.622070665E1,-9.571838379E-2,2.275573730E0,7.283752441E0
7.627070665E1,2.943115234E-1,2.179855347E0,8.855834961E0
7.632070665E1,3.325958252E-1,2.146362305E0,1.098066711E1
7.637070665E1,7.824554443E-1,1.629516602E0,1.283509827E1
7.642070665E1,-1.962127686E-1,2.859420776E0,1.161476135E1
7.647070665E1,1.289733887E0,8.135986328E-2,1.657746887E1
7.652070665E1,-2.464599609E-1,1.579284668E-1,9.836898804E0
7.657070665E1,6.006011963E-1,4.115600586E-1,7.503890991E0
7.662070665E1,2.153472900E-1,4.307098389E-1,8.516052246E0
7.667070665E1,-1.244201660E-1,9.834442139E-1,6.151947021E0
7.672070665E1,-2.536315918E-1,1.505081177E0,7.054046631E0
7.677070665E1,-2.177429199E-1,1.763504028E0,8.848663330E0
7.682070665E1,3.900299072E-1,1.538589478E0,1.235893250E1
7.687070665E1,1.141372681E0,8.518524170E-1,1.353619385E1
7.692070665E1,1.122238159E0,1.481155396E0,1.143769836E1
7.697070665E1,1.938171387E-1,-2.321014404E-1,1.494796753E1
7.702070665E1,4.259185791E-1,-3.828430176E-2,9.422943115E0
7.707070665E1,1.966903687E0,7.202453613E-1,8.774475098E0
7.712070665E1,6.221313477E-1,1.481155396E0,6.264404297E0
7.717070665E1,-4.785614014E-1,1.849655151E0,5.850448608E0
7.722070665E1,3.972015381E-1,2.273178101E0,8.173889160E0
7.727070665E1,8.613586426E-2,2.210968018E0,9.805786133E0
7.732070665E1,5.790557861E-1,1.914260864E0,1.358883667E1
7.737070665E1,8.039855957E-1,1.686935425E0,1.291645813E1
7.742070665E1,2.330612183E0,5.048828125E-1,1.310787964E1
7.747070665E1,-4.043884277E-1,-2.395629883E-3,1.095434570E1
7.752070665E1,1.507415771E-1,3.565368652E-1,9.623931885E0
7.757070665E1,4.833526611E-1,3.828582764E-1,7.984848022E0
7.762070665E1,-7.177734375E-2,1.237091064E0,6.029907227E0
7.767070665E1,-5.168457031E-1,1.476364136E0,6.922439575E0
7.772070665E1,9.020996094E-1,2.328216553E0,8.618942261E0
7.777070665E1,-1.698913574E-1,1.531402588E0,1.116012573E1
7.782070665E1,9.667053223E-1,1.399795532E0,1.288296509E1
7.787070665E1,8.805541992E-1,1.998001099E0,1.249531555E1
7.792070665E1,1.299301147E0,1.543365479E0,1.110269165E1
7.797070665E1,-4.791259766E-3,-1.938171387E-1,1.230868530E1
7.802070665E1,1.660614014E0,2.512512207E-1,8.389236450E0
7.807070665E1,1.328018188E0,9.308013916E-1,8.566299438E0
7.812070665E1,4.115600586E-1,1.725219727E0,5.737991333E0
7.817070665E1,-1.459655762E-1,2.318649292E0,6.936798096E0
7.822070665E1,1.100769043E-1,2.390426636E0,9.554534912E0
7.827070665E1,7.346038818E-1,2.421539307E0,1.251446533E1
7.832070665E1,9.020996094E-1,1.540985107E0,1.456510925E1
7.837070665E1,1.938171387E-1,2.732604980E0,1.114337158E1
7.842070665E1,8.255310059E-1,6.628112793E-1,1.311984253E1
7.847070665E1,-1.746826172E-1,5.288085938E-1,9.253051758E0
7.852070665E1,2.512512207E-1,1.674957275E-1,1.007617188E1
7.857070665E1,3.397827148E-1,9.762725830E-1,7.451248169E0
7.862070665E1,3.493499756E-1,1.435699463E0,5.938980103E0
7.867070665E1,-3.349304199E-2,1.856826782E0,6.431915283E0
7.872070665E1,-1.962127686E-1,2.246856689E0,8.408386230E0
7.877070665E1,1.914978027E-2,1.792221069E0,1.203828430E1
7.882070665E1,9.116668701E-1,1.849655151E0,1.253121948E1
7.887070665E1,3.062744141E-1,1.950149536E0,1.145205688E1
7.892070665E1,-5.743408203E-2,-2.536315918E-1,1.702014160E1
7.897070665E1,-2.201385498E-1,-3.517456055E-1,1.038246155E1
7.902070665E1,1.921432495E0,1.048049927E0,8.743377686E0
7.907070665E1,4.546356201E-1,1.701293945E0,6.443878174E0
7.912070665E1,-7.250213623E-1,1.897506714E0,5.407775879E0
7.917070665E1,-1.866455078E-1,2.196609497E0,6.881759644E0
7.922070665E1,-6.460571289E-2,2.474182129E0,8.721832275E0
7.927070665E1,4.785156250E-2,1.732406616E0,1.277288818E1
7.932070665E1,5.958099365E-1,1.447662354E0,1.354577637E1
7.937070665E1,2.191818237E0,1.237091064E0,1.364627075E1
7.942070665E1,-6.986999512E-1,1.316070557E-1,1.235653687E1
7.947070665E1,-2.440643311E-1,1.153335571E0,8.793624878E0
7.952070665E1,-1.340026855E-1,7.728881836E-1,7.412963867E0
7.957070665E1,1.172485352E-1,1.325622559E0,5.919845581E0
7.962070665E1,-2.584228516E-1,1.619934082E0,6.604187012E0
7.967070665E1,6.532440186E-1,2.208572388E0,8.889343262E0
7.972070665E1,3.038940430E-1,1.131805420E0,1.178944397E1
7.977070665E1,1.406982422E0,1.040878296E0,1.261975098E1
7.982070665E1,1.531372070E-1,1.390228271E0,1.213400269E1
7.987070665E1,1.976470947E0,2.584228516E-1,1.433779907E1
7.992070665E1,-9.762725830E-1,-8.638153076E-1,1.268913269E1
7.997070665E1,1.368698120E0,7.728881836E-1,8.214553833E0
8.002070665E1,1.753936768E0,1.488342285E0,7.944168091E0
8.007070665E1,3.111267090E-2,1.672576904E0,5.247467041E0
8.012070665E1,-1.435699463E-1,1.672576904E0,7.051651001E0
8.017070665E1,3.804626465E-1,1.797012329E0,9.147766113E0
8.022070665E1,6.891326904E-1,1.998001099E0,1.175115967E1
8.027070665E1,1.828109741E0,1.868789673E0,1.324667358E1
8.032070665E1,-5.766754150E-1,2.701492310E0,1.059541321E1
8.037070665E1,5.838470459E-1,7.034912109E-1,1.505802917E1
8.042070665E1,2.943115234E-1,5.455627441E-1,9.913467407E0
8.047070665E1,3.349914551E-1,5.431671143E-1,7.329208374E0
8.052070665E1,3.684997559E-1,8.685913086E-1,8.092529297E0
8.057070665E1,5.407714844E-1,1.607971191E0,6.888931274E0
8.062070665E1,1.387786865E-1,1.801788330E0,7.788635254E0
8.067070665E1,6.939239502E-1,1.550552368E0,1.001156616E1
8.072070665E1,5.623168945E-1,1.167694092E0,1.126062012E1
8.077070665E1,2.201385498E-1,1.308868408E0,1.176072693E1
8.082070665E1,1.856826782E0,1.883148193E0,1.007139587E1
8.087070665E1,-8.973083496E-1,-5.551300049E-1,1.652722168E1
8.092070665E1,6.939239502E-1,9.427795410E-1,7.805389404E0
8.097070665E1,8.733825684E-1,7.824554443E-1,7.783859253E0
8.102070665E1,4.809570312E-1,1.280166626E0,7.286148071E0
8.107070665E1,-4.642028809E-1,1.526626587E0,7.798202515E0
8.112070665E1,1.698913574E-1,1.931015015E0,9.518646240E0
8.117070665E1,8.446655273E-1,1.904693604E0,1.154536438E1
8.122070665E1,1.820938110E0,1.780258179E0,1.317008972E1
8.127070665E1,6.340942383E-1,2.065002441E0,1.169612122E1
8.132070665E1,2.263610840E0,6.986999512E-1,1.458186340E1
8.137070665E1,-5.718841553E-1,5.264282227E-2,9.078369141E0
8.142070665E1,-2.395629883E-3,6.029968262E-1,9.513870239E0
8.147070665E1,3.852386475E-1,8.470611572E-1,7.822143555E0
8.152070665E1,-2.823486328E-1,1.691726685E0,5.465209961E0
8.157070665E1,-7.010955811E-1,1.816146851E0,7.068405151E0
8.162070665E1,9.332275391E-2,2.170288086E0,1.020538330E1
8.167070665E1,3.924255371E-1,1.373474121E0,1.288296509E1
8.172070665E1,1.148559570E0,1.241882324E0,1.249291992E1
8.177070665E1,6.364898682E-1,1.775466919E0,1.059780884E1
8.182070665E1,9.427795410E-1,6.269226074E-1,1.281356812E1
8.187070665E1,-2.991027832E-1,-1.172485352E-1,9.879959106E0
8.192070665E1,1.292129517E0,4.019927979E-1,9.157333374E0
8.197070665E1,4.163513184E-1,1.043273926E0,8.511276245E0
8.202070665E1,-5.551300049E-1,1.548156738E0,6.549148560E0
8.207070665E1,1.459655762E-1,1.806579590E0,7.657028198E0
8.212070665E1,4.498443604E-1,1.952545166E0,9.600006104E0
8.217070665E1,7.513427734E-1,2.036285400E0,1.092083740E1
8.222070665E1,1.902297974E0,1.868789673E0,1.323469543E1
8.227070665E1,8.829498291E-1,1.962112427E0,1.164108276E1
8.232070665E1,1.344772339E0,3.972015381E-1,1.539541626E1
8.237070665E1,-7.656860352E-2,2.201385498E-1,8.736190796E0
8.242070665E1,2.775726318E-1,3.445739746E-1,8.961120605E0
8.247070665E1,2.727813721E-1,1.048049927E0,7.116256714E0
8.252070665E1,-4.115600586E-1,1.392623901E0,7.125823975E0
8.257070665E1,5.072784424E-1,1.899902344E0,7.994415283E0
8.262070665E1,4.618072510E-1,1.674972534E0,1.023410034E1
8.267070665E1,9.954071045E-1,1.478759766E0,1.214118958E1
8.272070665E1,9.379882812E-1,1.225128174E0,1.225604248E1
8.277070665E1,9.116668701E-1,2.294723511E0,8.719451904E0
8.282070665E1,-5.934143066E-1,6.029968262E-1,1.342613220E1
8.287070665E1,1.459655762E-1,4.833526611E-1,8.307876587E0
8.292070665E1,7.082824707E-1,2.536315918E-1,9.348754883E0
8.297070665E1,2.225341797E-1,7.728881836E-1,8.504089355E0
8.302070665E1,2.679901123E-1,1.447662354E0,8.176269531E0
8.307070665E1,3.397827148E-1,1.957336426E0,8.858230591E0
8.312070665E1,9.547424316E-1,2.124832153E0,1.134197998E1
8.317070665E1,1.325622559E0,1.923828125E0,1.181336975E1
8.322070665E1,8.183441162E-1,2.029113770E0,1.223689270E1
8.327070665E1,2.431106567E0,1.194015503E0,1.285424805E1
8.332070665E1,-8.015899658E-1,-9.092712402E-2,1.003071594E1
8.337070665E1,-2.632141113E-1,9.403839111E-1,9.178863525E0
8.342070665E1,-1.435699463E-1,8.494567871E-1,8.279159546E0
8.347070665E1,-4.307556152E-2,1.529006958E0,6.668792725E0
8.352070665E1,4.785156250E-2,1.658233643E0,7.709671021E0
8.357070665E1,4.187469482E-1,2.014755249E0,9.190826416E0
8.362070665E1,3.014984131E-1,1.265808105E0,1.165304565E1
8.367070665E1,7.369842529E-1,9.930267334E-1,1.234457397E1
8.372070665E1,3.038940430E-1,2.112869263E0,1.136830139E1
8.377070665E1,1.265808105E0,1.476364136E0,1.319163513E1
8.382070665E1,-7.058868408E-1,-4.977111816E-1,1.064328003E1
8.387070665E1,8.733825684E-1,8.327026367E-1,7.728820801E0
8.392070665E1,6.197357178E-1,1.234695435E0,6.819549561E0
8.397070665E1,-4.785156250E-2,1.725219727E0,6.620941162E0
8.402070665E1,-2.775726318E-1,1.753936768E0,8.123626709E0
8.407070665E1,6.173553467E-1,2.277969360E0,1.063131714E1
8.412070665E1,6.364898682E-1,2.074584961E0,1.198565674E1
8.417070665E1,7.704925537E-1,2.007583618E0,1.289492798E1
8.422070665E1,3.014984131E-1,2.730209351E0,1.070549011E1
8.427070665E1,-3.134613037E-1,6.843414307E-1,1.450289917E1
8.432070665E1,-1.205978394E0,6.484527588E-1,8.480163574E0
8.437070665E1,8.518524170E-1,7.728881836E-1,8.264816284E0
8.442070665E1,7.034912109E-1,9.260253906E-1,6.742980957E0
8.447070665E1,2.395629883E-3,9.714813232E-1,7.810180664E0
8.452070665E1,-1.340026855E-1,1.627120972E0,7.834106445E0
8.457070665E1,-2.177429199E-1,1.560119629E0,1.045663452E1
8.462070665E1,2.703857422E-1,1.308868408E0,1.250727844E1
8.467070665E1,4.115600586E-1,1.110275269E0,1.256950378E1
8.472070665E1,1.464401245E0,1.387832642E0,1.076052856E1
8.477070665E1,-7.968139648E-1,-1.746826172E-1,1.511306763E1
8.482070665E1,3.613128662E-1,1.244262695E0,7.130615234E0
8.487070665E1,6.580200195E-1,7.417755127E-1,8.740982056E0
8.492070665E1,2.727813721E-1,1.275375366E0,6.075378418E0
8.497070665E1,-5.958099365E-1,1.569686890E0,6.582656860E0
8.502070665E1,1.603240967E-1,1.864013672E0,8.772094727E0
8.507070665E1,4.067840576E-1,2.263610840E0,1.106440735E1
8.512070665E1,9.284210205E-1,1.986038208E0,1.255514526E1
8.517070665E1,7.633056641E-1,2.163116455E0,1.282313538E1
8.522070665E1,1.143768311E0,8.135528564E-1,1.481636047E1
8.527070665E1,-4.163513184E-1,1.268157959E-1,1.024128723E1
8.532070665E1,-1.579284668E-1,7.848510742E-1,9.530609131E0
8.537070665E1,1.459655762E-1,9.978027344E-1,7.838882446E0
8.542070665E1,-7.896423340E-2,1.342376709E0,6.771682739E0
8.547070665E1,-1.316070557E-1,1.167694092E0,6.941574097E0
8.552070665E1,-1.507415771E-1,1.213165283E0,8.070983887E0
8.557070665E1,-7.034912109E-1,1.225128174E0,1.066481018E1
8.562070665E1,-1.196289062E-2,9.308013916E-1,1.292362976E1
8.567070665E1,-9.332275391E-2,2.170288086E0,1.173918152E1
8.572070665E1,5.096740723E-1,8.327026367E-1,1.546481323E1
8.577070665E1,-4.211425781E-1,-8.279113770E-1,1.121994019E1
8.582070665E1,1.694122314E0,8.087768555E-1,8.030319214E0
8.587070665E1,5.192413330E-1,1.201202393E0,7.121032715E0
8.592070665E1,-5.599212646E-1,1.241882324E0,6.458221436E0
8.597070665E1,-1.507415771E-1,1.706085205E0,7.154541016E0
8.602070665E1,7.561340332E-1,1.921432495E0,9.138183594E0
8.607070665E1,2.488555908E-1,1.674972534E0,1.202394104E1
8.612070665E1,1.574478149E0,1.316055298E0,1.382333374E1
8.617070665E1,-5.072784424E-1,2.591430664E0,1.073420715E1
8.622070665E1,-5.096740723E-1,8.303070068E-1,1.393341064E1
8.627070665E1,1.770629883E-1,6.125640869E-1,9.485153198E0
8.632070665E1,1.048049927E0,7.130584717E-1,6.912872314E0
8.637070665E1,2.225341797E-1,3.421783447E-1,8.829513550E0
8.642070665E1,2.249298096E-1,1.325622559E0,6.965499878E0
8.647070665E1,1.722869873E-1,1.478759766E0,8.159530640E0
8.652070665E1,7.106628418E-1,1.617553711E0,1.049731445E1
8.657070665E1,8.566284180E-1,1.677368164E0,1.150230408E1
8.662070665E1,5.647125244E-1,1.622329712E0,1.232542419E1
8.667070665E1,1.971679688E0,1.607971191E0,1.034178162E1
8.672070665E1,-2.392883301E-1,1.076812744E-1,1.380419922E1
8.677070665E1,6.388854980E-1,8.470611572E-1,8.444274902E0
8.682070665E1,1.404586792E0,1.203582764E0,7.891525269E0
8.687070665E1,-9.571838379E-2,1.186843872E0,7.616348267E0
8.692070665E1,1.292114258E-1,2.041076660E0,8.434707642E0
8.697070665E1,4.977111816E-1,2.277969360E0,9.032897949E0
8.702070665E1,5.599212646E-1,2.557922363E0,1.005943298E1
8.707070665E1,1.105484009E0,2.017150879E0,1.255754089E1
8.712070665E1,7.656860352E-2,2.407180786E0,1.108355713E1
8.717070665E1,1.883148193E0,6.986999512E-1,1.534756470E1
8.722070665E1,-8.375549316E-2,6.101684570E-1,8.985046387E0
8.727070665E1,-5.575256348E-1,7.800598145E-1,7.767105103E0
8.732070665E1,6.460571289E-1,1.093521118E0,6.934402466E0
8.737070665E1,2.584228516E-1,1.543365479E0,8.482559204E0
8.742070665E1,-1.052856445E-1,1.323226929E0,8.102096558E0
8.747070665E1,3.589172363E-1,1.835296631E0,9.908676147E0
8.752070665E1,1.387786865E-1,1.708480835E0,1.124388123E1
8.757070665E1,7.250213623E-1,1.627120972E0,1.220100403E1
8.762070665E1,2.751770020E-1,1.880752563E0,1.140419006E1
8.767070665E1,6.676025391E-1,1.615158081E0,1.312942505E1
8.772070665E1,3.062744141E-1,2.656097412E-1,1.042552185E1
8.777070665E1,1.665405273E0,1.062408447E0,8.367706299E0
8.782070665E1,-5.981445312E-2,4.929199219E-1,8.860626221E0
8.787070665E1,-5.838470459E-1,1.217941284E0,6.594619751E0
8.792070665E1,4.355010986E-1,2.009963989E0,7.527816772E0
8.797070665E1,1.258621216E0,2.136795044E0,9.320037842E0
8.802070665E1,1.026519775E0,2.297103882E0,1.056192017E1
8.807070665E1,1.268188477E0,1.832901001E0,1.339981079E1
8.812070665E1,1.268157959E-1,2.641677856E0,1.066960144E1
8.817070665E1,2.943115234E-1,7.489471436E-1,1.433540344E1
8.822070665E1,7.177734375E-2,2.225341797E-1,9.990036011E0
8.827070665E1,3.948211670E-1,3.134613037E-1,8.571090698E0
8.832070665E1,7.824554443E-1,9.882354736E-1,6.809967041E0
8.837070665E1,-2.033843994E-1,1.500305176E0,7.037292480E0
8.842070665E1,1.435699463E-1,1.820938110E0,7.539779663E0
8.847070665E1,2.632141113E-1,1.840087891E0,1.053080750E1
8.852070665E1,6.293182373E-1,1.485946655E0,1.209092712E1
8.857070665E1,8.685913086E-1,1.033706665E0,1.339501953E1
8.862070665E1,4.665985107E-1,1.581649780E0,1.102851868E1
8.867070665E1,1.340026855E-1,4.474639893E-1,1.413439941E1
8.872070665E1,-2.440643311E-1,2.512512207E-1,9.348754883E0
8.877070665E1,2.053039551E0,8.350982666E-1,7.858032227E0
8.882070665E1,6.484527588E-1,1.610366821E0,7.288543701E0
8.887070665E1,-7.154541016E-1,1.373474121E0,6.977478027E0
8.892070665E1,5.264282227E-2,1.797012329E0,8.188232422E0
8.897070665E1,2.488555908E-1,2.218139648E0,9.896713257E0
8.902070665E1,8.135528564E-1,2.007583618E0,1.183250427E1
8.907070665E1,2.560272217E-1,1.672576904E0,1.224407959E1
8.912070665E1,1.088729858E0,6.077728271E-1,1.328016663E1
8.917070665E1,6.700134277E-2,-7.896423340E-2,1.223449707E1
8.922070665E1,-8.111724854E-1,9.523468018E-1,8.518447876E0
8.927070665E1,-1.698913574E-1,4.307098389E-1,8.434707642E0
8.932070665E1,3.445739746E-1,1.603195190E0,5.472381592E0
8.937070665E1,-3.278198242E-1,1.177261353E0,7.262222290E0
8.942070665E1,7.417755127E-1,1.962112427E0,8.970687866E0
8.947070665E1,-3.588867188E-2,1.732406616E0,1.109791565E1
8.952070665E1,3.493499756E-1,1.770690918E0,1.146162415E1
8.957070665E1,4.211425781E-1,1.569686890E0,1.299063110E1
8.962070665E1,1.375869751E0,1.545761108E0,1.189710999E1
8.967070665E1,-2.273254395E-1,-5.766754150E-1,1.331845093E1
8.972070665E1,9.762725830E-1,3.158569336E-1,1.009771729E1
8.977070665E1,8.183441162E-1,3.756713867E-1,8.910873413E0
8.982070665E1,-1.196289062E-2,1.378265381E0,5.592025757E0
8.987070665E1,-1.818542480E-1,1.679763794E0,7.046859741E0
8.992070665E1,9.762725830E-1,1.923828125E0,8.891723633E0
8.997070665E1,5.718841553E-1,1.966903687E0,1.027717590E1
9.002070665E1,1.249053955E0,1.658233643E0,1.237329102E1
9.007070665E1,1.698913574E-1,1.859222412E0,1.216751099E1
9.012070665E1,1.978866577E0,9.355926514E-1,1.270349121E1
9.017070665E1,-5.431671143E-1,-1.316070557E-1,9.942184448E0
9.022070665E1,1.866455078E-1,3.780670166E-1,8.425125122E0
9.027070665E1,5.048828125E-1,6.747741699E-1,8.657226562E0
9.032070665E1,7.656860352E-2,1.184448242E0,6.994216919E0
9.037070665E1,-2.344970703E-1,1.466796875E0,7.652252197E0
9.042070665E1,4.642028809E-1,1.698898315E0,9.580856323E0
9.047070665E1,-6.221008301E-2,8.494567871E-1,1.151426697E1
9.052070665E1,7.968139648E-1,6.747741699E-1,1.312942505E1
9.057070665E1,8.973083496E-1,1.263412476E0,1.144247437E1
9.062070665E1,1.962127686E-1,-1.387786865E-1,1.428036499E1
9.067070665E1,3.780670166E-1,-5.479583740E-1,9.762710571E0
9.072070665E1,1.550552368E0,3.111267090E-2,9.717254639E0
9.077070665E1,-1.603240967E-1,9.212341309E-1,6.601791382E0
9.082070665E1,-3.732757568E-1,1.572082520E0,6.678375244E0
9.087070665E1,4.235229492E-1,1.780258179E0,8.152343750E0
9.092070665E1,5.743408203E-2,1.763504028E0,9.714859009E0
9.097070665E1,2.608184814E-1,1.560119629E0,1.214356995E1
9.102070665E1,9.619140625E-1,1.507476807E0,1.311267090E1
9.107070665E1,-1.079162598E0,1.631912231E0,1.097109985E1
9.112070665E1,-7.106628418E-1,5.479583740E-1,1.293081665E1
9.117070665E1,-6.053771973E-1,6.364898682E-1,1.028913879E1
9.122070665E1,-3.852386475E-1,7.154541016E-1,7.939392090E0
9.127070665E1,-3.086700439E-1,1.093521118E0,6.271591187E0
9.132070665E1,-9.786682129E-1,1.002593994E0,7.333999634E0
9.137070665E1,-8.111724854E-1,1.265808105E0,8.224136353E0
9.142070665E1,-3.086700439E-1,1.356735229E0,1.051406860E1
9.147070665E1,1.220397949E-1,1.129409790E0,1.164347839E1
9.152070665E1,-4.426727295E-1,9.355926514E-1,1.308874512E1
9.157070665E1,1.442871094E0,1.335189819E0,1.110269165E1
9.162070665E1,-8.542327881E-1,-3.828430176E-2,1.291166687E1
9.167070665E1,2.751770020E-1,8.638153076E-1,8.566299438E0
9.172070665E1,3.349304199E-2,8.303070068E-1,8.126022339E0
9.177070665E1,-9.809875488E-2,1.560119629E0,6.659225464E0
9.182070665E1,-5.383911133E-1,1.770690918E0,7.508682251E0
9.187070665E1,9.332275391E-2,2.031509399E0,9.320037842E0
9.192070665E1,2.153472900E-1,2.017150879E0,1.042791748E1
9.197070665E1,1.770629883E-1,1.823333740E0,1.223211670E1
9.202070665E1,-1.938171387E-1,2.117645264E0,1.229193115E1
9.207070665E1,1.617553711E0,8.422698975E-1,1.491207886E1
9.212070665E1,-1.584045410E0,-1.555328369E-1,9.961318970E0
9.217070665E1,-8.757781982E-1,8.446655273E-1,8.346160889E0
9.222070665E1,-1.675415039E-2,7.130584717E-1,5.737991333E0
9.227070665E1,-1.770629883E-1,7.537384033E-1,8.535202026E0
9.232070665E1,1.435852051E-2,1.165298462E0,8.446670532E0
9.237070665E1,-1.818542480E-1,2.105682373E0,9.796218872E0
9.242070665E1,-7.298126221E-1,1.727615356E0,1.088494873E1
9.247070665E1,4.187469482E-1,1.337585449E0,1.220817566E1
9.252070665E1,1.244201660E-1,1.696517944E0,1.150947571E1
9.257070665E1,1.239486694E0,1.083953857E0,1.213879395E1
9.262070665E1,-8.279113770E-1,-1.100692749E0,1.269631958E1
9.267070665E1,1.167694092E0,5.407714844E-1,9.250656128E0
9.272070665E1,3.182525635E-1,8.805541992E-1,8.260025024E0
9.277070665E1,-2.225341797E-1,1.533798218E0,6.362518311E0
9.282070665E1,1.675415039E-2,1.789825439E0,8.087738037E0
9.287070665E1,4.378814697E-1,2.103286743E0,9.509078979E0
9.292070665E1,2.823486328E-1,2.232498169E0,1.085145569E1
9.297070665E1,7.082824707E-1,1.631912231E0,1.266520691E1
9.302070665E1,-4.187469482E-1,2.498107910E0,1.092802429E1
9.307070665E1,7.298126221E-1,4.642028809E-1,1.455075073E1
9.312070665E1,-7.130584717E-1,1.028900146E-1,9.126220703E0
9.317070665E1,3.517456055E-1,4.474639893E-1,8.927627563E0
9.322070665E1,3.780670166E-1,6.508483887E-1,7.824523926E0
9.327070665E1,-1.292114258E-1,1.452438354E0,6.747756958E0
9.332070665E1,2.632141113E-2,1.519439697E0,7.683349609E0
9.337070665E1,2.153472900E-1,1.868789673E0,9.468399048E0
9.342070665E1,4.307556152E-2,1.399795532E0,1.126062012E1
9.347070665E1,7.896270752E-1,1.071990967E0,1.341177368E1
9.352070665E1,1.411743164E-1,1.734802246E0,1.103570557E1
9.357070665E1,1.129409790E0,1.241882324E0,1.382572937E1
9.362070665E1,-2.464599609E-1,-3.158569336E-1,1.063609314E1
9.367070665E1,1.289733887E0,8.973083496E-1,7.664215088E0
9.372070665E1,4.235229492E-1,1.136596680E0,7.594818115E0
9.377070665E1,-3.589172363E-1,1.677368164E0,6.369689941E0
9.382070665E1,2.033843994E-1,2.038681030E0,8.114059448E0
9.387070665E1,3.756713867E-1,2.120040894E0,9.621536255E0
9.392070665E1,1.411743164E-1,1.998001099E0,1.180378723E1
9.397070665E1,1.246658325E0,1.430908203E0,1.335433960E1
9.402070665E1,1.842498779E-1,1.911865234E0,1.055235291E1
9.407070665E1,8.542327881E-1,-2.632141113E-1,1.505802917E1
9.412070665E1,-1.459655762E-1,8.327026367E-1,8.070983887E0
9.417070665E1,-1.435852051E-2,4.043884277E-1,8.539978027E0
9.422070665E1,1.459655762E-1,1.012161255E0,7.223937988E0
9.427070665E1,-1.340026855E-1,1.478759766E0,7.003799438E0
9.432070665E1,1.675415039E-2,1.536193848E0,7.858032227E0
9.437070665E1,-1.986083984E-1,1.450057983E0,9.877578735E0
9.442070665E1,7.728881836E-1,1.715652466E0,1.258624268E1
9.447070665E1,8.590240479E-1,1.361511230E0,1.334237671E1
9.452070665E1,9.595184326E-1,1.935791016E0,1.011445618E1
9.457070665E1,3.445739746E-1,8.638153076E-1,1.353141785E1
9.462070665E1,-1.028900146E-1,2.249298096E-1,8.925231934E0
9.467070665E1,1.270584106E0,5.431671143E-1,8.037490845E0
9.472070665E1,2.395629883E-3,1.040878296E0,6.951156616E0
9.477070665E1,-2.273254395E-1,1.543365479E0,7.357925415E0
9.482070665E1,7.704925537E-1,2.053039551E0,9.023330688E0
9.487070665E1,9.236297607E-1,2.148757935E0,1.026281738E1
9.492070665E1,8.949127197E-1,2.215759277E0,1.274177551E1
9.497070665E1,9.260253906E-1,1.890335083E0,1.349313354E1
9.502070665E1,9.068756104E-1,1.507476807E0,9.918243408E0
9.507070665E1,2.249298096E-1,6.700134277E-2,1.335673523E1
9.512070665E1,-1.435852051E-2,3.038940430E-1,9.367904663E0
9.517070665E1,5.862426758E-1,5.766754150E-1,6.774078369E0
9.522070665E1,-5.264282227E-2,3.852386475E-1,8.224136353E0
9.527070665E1,1.244201660E-1,1.201202393E0,7.111465454E0
9.532070665E1,7.656860352E-2,1.536193848E0,8.506484985E0
9.537070665E1,2.416687012E-1,1.433303833E0,1.024366760E1
9.542070665E1,7.130584717E-1,1.071990967E0,1.279203796E1
9.547070665E1,6.269226074E-1,1.562515259E0,1.224407959E1
9.552070665E1,1.485946655E0,1.057632446E0,1.130848694E1
9.557070665E1,-3.828430176E-2,-4.833526611E-1,1.388316345E1
9.562070665E1,1.368698120E0,1.158126831E0,8.094924927E0
9.567070665E1,1.512268066E0,1.129409790E0,7.810180664E0
9.572070665E1,3.804626465E-1,1.263412476E0,7.329208374E0
9.577070665E1,2.871704102E-2,1.768295288E0,7.271789551E0
9.582070665E1,6.053771973E-1,1.966903687E0,8.863021851E0
9.587070665E1,7.226257324E-1,1.914260864E0,1.062652588E1
9.592070665E1,9.212341309E-1,1.402191162E0,1.314855957E1
9.597070665E1,2.177429199E-1,2.397613525E0,1.078923035E1
9.602070665E1,7.752685547E-1,3.278198242E-1,1.603669739E1
9.607070665E1,-3.732757568E-1,4.091796875E-1,9.183654785E0
9.612070665E1,-2.895355225E-1,8.470611572E-1,8.327026367E0
9.617070665E1,5.862426758E-1,1.026519775E0,7.561325073E0
9.622070665E1,7.417755127E-1,1.615158081E0,6.522827148E0
9.627070665E1,3.349914551E-1,1.521835327E0,7.800598145E0
9.632070665E1,7.274169922E-1,1.799407959E0,9.410964966E0
9.637070665E1,4.259185791E-1,1.203582764E0,1.108595276E1
9.642070665E1,1.289733887E0,1.342376709E0,1.263171387E1
9.647070665E1,5.096740723E-1,1.497909546E0,1.227040100E1
9.652070665E1,1.512268066E0,1.497909546E0,1.238764954E1
9.657070665E1,-4.283142090E-1,-7.513427734E-1,1.106440735E1
9.662070665E1,1.227523804E0,8.159484863E-1,8.776870728E0
9.667070665E1,4.498443604E-1,1.402191162E0,7.451248169E0
9.672070665E1,-3.086700439E-1,1.902297974E0,6.214157104E0
9.677070665E1,2.919311523E-1,2.139190674E0,7.379470825E0
9.682070665E1,1.172485352E-1,1.505081177E0,1.005464172E1
9.687070665E1,8.207397461E-1,1.497909546E0,1.186122131E1
9.692070665E1,1.433303833E0,1.081558228E0,1.359123230E1
9.697070665E1,1.548156738E0,1.785049438E0,1.131565857E1
9.702070665E1,4.115600586E-1,2.512512207E-1,1.313420105E1
9.707070665E1,-4.594268799E-1,9.954071045E-1,8.207382202E0
9.712070665E1,6.388854980E-1,3.732757568E-1,9.767501831E0
9.717070665E1,5.694885254E-1,9.092712402E-1,8.463409424E0
9.722070665E1,-1.196441650E-1,1.313659668E0,6.853042603E0
9.727070665E1,7.824554443E-1,1.670196533E0,8.382064819E0
9.732070665E1,2.775726318E-1,1.380661011E0,1.013839722E1
9.737070665E1,5.670928955E-1,1.390228271E0,1.144007874E1
9.742070665E1,1.663009644E0,8.685913086E-1,1.274656677E1
9.747070665E1,1.423736572E0,9.427795410E-1,9.982849121E0
9.752070665E1,-9.499511719E-1,-1.483612061E-1,1.337588501E1
9.757070665E1,4.833526611E-1,4.737854004E-1,9.198013306E0
9.762070665E1,1.342376709E0,6.293182373E-1,9.001800537E0
9.767070665E1,3.828430176E-2,8.638153076E-1,7.266998291E0
9.772070665E1,7.177734375E-2,1.751541138E0,7.255035400E0
9.777070665E1,2.344970703E-1,1.691726685E0,8.118850708E0
9.782070665E1,6.269226074E-1,1.935791016E0,1.066960144E1
9.787070665E1,1.567306519E0,1.758728027E0,1.262931824E1
9.792070665E1,1.024124146E0,1.261016846E0,1.324905396E1
9.797070665E1,1.464401245E0,9.092712402E-1,1.152383423E1
9.802070665E1,5.623168945E-1,-5.958099365E-1,1.220100403E1
9.807070665E1,2.967071533E-1,3.756713867E-1,8.779266357E0
9.812070665E1,5.814514160E-1,4.187469482E-1,8.458633423E0
9.817070665E1,1.866455078E-1,8.877410889E-1,6.984649658E0
9.822070665E1,-1.914215088E-1,1.234695435E0,7.312469482E0
9.827070665E1,1.004943848E-1,1.538589478E0,8.472991943E0
9.832070665E1,-2.105712891E-1,1.119842529E0,1.068395996E1
9.837070665E1,4.833526611E-1,9.260253906E-1,1.274896240E1
9.842070665E1,6.771697998E-1,1.088729858E0,1.269392395E1
9.847070665E1,1.220336914E0,1.172485352E0,1.060737610E1
9.852070665E1,-5.790557861E-1,-6.125640869E-1,1.363670349E1
9.857070665E1,8.446655273E-1,3.684997559E-1,8.231307983E0
9.862070665E1,1.569686890E0,8.518524170E-1,8.073379517E0
9.867070665E1,4.331054688E-1,1.373474121E0,7.068405151E0
9.872070665E1,1.986083984E-1,1.758728027E0,6.891326904E0
9.877070665E1,3.254241943E-1,2.036285400E0,9.178863525E0
9.882070665E1,1.316055298E0,1.880752563E0,1.101176453E1
9.887070665E1,1.050445557E0,1.557723999E0,1.286860657E1
9.892070665E1,9.379882812E-1,1.854431152E0,1.194497681E1
9.897070665E1,9.355926514E-1,1.332809448E0,1.170329285E1
9.902070665E1,9.332275391E-2,-1.627044678E-1,1.228474426E1
9.907070665E1,-9.567260742E-3,5.647125244E-1,7.946563721E0
9.912070665E1,2.847442627E-1,4.450683594E-1,9.030517578E0
9.917070665E1,-2.129669189E-1,9.714813232E-1,6.199798584E0
9.922070665E1,-3.565368652E-1,1.313659668E0,7.087539673E0
9.927070665E1,1.914215088E-1,1.703689575E0,8.154739380E0
9.932070665E1,-7.896423340E-2,1.174880981E0,1.157408142E1
9.937070665E1,5.599212646E-1,1.093521118E0,1.254318237E1
9.942070665E1,-2.632141113E-2,1.395019531E0,1.296191406E1
9.947070665E1,1.679763794E0,1.552947998E0,1.128454590E1
9.952070665E1,-1.249053955E0,-5.288085938E-1,1.232304382E1
9.957070665E1,8.853454590E-1,4.785614014E-1,8.853439331E0
9.962070665E1,1.186843872E0,1.119842529E0,8.078170776E0
9.967070665E1,-6.149597168E-1,9.619140625E-1,7.199996948E0
9.972070665E1,-6.460571289E-2,1.725219727E0,8.135604858E0
9.977070665E1,5.862426758E-1,1.715652466E0,9.530609131E0
9.982070665E1,1.986083984E-1,1.976470947E0,1.138026428E1
9.987070665E1,1.172485352E0,1.493118286E0,1.309352112E1
9.992070665E1,-1.579284668E-1,2.112869263E0,1.174636841E1
9.997070665E1,1.170089722E0,1.258621216E0,1.166261292E1
1.000207066E2,-7.106628418E-1,-2.081756592E-1,1.113380432E1
1.000707066E2,-6.221008301E-2,6.819610596E-1,8.477767944E0
1.001207066E2,1.627044678E-1,7.561340332E-1,7.429718018E0
1.001707066E2,-7.896270752E-1,9.714813232E-1,7.128219604E0
1.002207066E2,-1.938171387E-1,1.806579590E0,8.068603516E0
1.002707066E2,-3.182525635E-1,1.732406616E0,9.468399048E0
1.003207066E2,1.196289062E-2,1.739578247E0,1.086341858E1
1.003707066E2,2.368927002E-1,1.483551025E0,1.189471436E1
1.004207066E2,-4.474639893E-1,1.564910889E0,1.244746399E1
1.004707066E2,1.399795532E0,1.737182617E0,1.091845703E1
1.005207066E2,2.105712891E-1,-3.373870850E-1,1.202154541E1
1.005707066E2,1.768295288E0,7.393798828E-1,7.592422485E0
1.006207066E2,4.259185791E-1,6.125640869E-1,9.341583252E0
1.006707066E2,1.603240967E-1,1.385437012E0,6.620941162E0
1.007207066E2,1.746826172E-1,1.974075317E0,7.697708130E0
1.007707066E2,7.824554443E-1,2.115249634E0,9.956542969E0
1.008207066E2,9.571228027E-1,2.112869263E0,1.091606140E1
1.008707066E2,1.306488037E0,1.591232300E0,1.389752197E1
1.009207066E2,-4.067840576E-1,2.364105225E0,1.043988037E1
1.009707066E2,7.465667725E-1,8.638153076E-1,1.401237488E1
1.010207066E2,-9.643096924E-1,4.067840576E-1,7.968093872E0
1.010707066E2,5.982055664E-1,2.440643311E-1,1.002352905E1
1.011207066E2,5.910339355E-1,8.781585693E-1,8.922836304E0
1.011707066E2,-1.531372070E-1,1.572082520E0,6.326629639E0
1.012207066E2,4.594268799E-1,1.777862549E0,7.611572266E0
1.012707066E2,3.254241943E-1,1.655838013E0,9.650253296E0
1.013207066E2,9.020996094E-1,1.445266724E0,1.224407959E1
1.013707066E2,7.489471436E-1,1.198806763E0,1.196411133E1
1.014207066E2,-9.332275391E-2,1.538589478E0,1.115295410E1
1.014707066E2,5.096740723E-1,4.522399902E-1,1.443589783E1
1.015207066E2,8.375549316E-2,-2.871398926E-1,9.566513062E0
1.015707066E2,1.670196533E0,7.752685547E-1,7.877166748E0
1.016207066E2,1.962127686E-1,1.124633789E0,7.872390747E0
1.016707066E2,-1.746826172E-1,1.923828125E0,6.159118652E0
1.017207066E2,2.153015137E-2,2.055435181E0,8.202590942E0
1.017707066E2,3.637084961E-1,1.916656494E0,1.050210571E1
1.018207066E2,6.843414307E-1,1.665405273E0,1.202154541E1
1.018707066E2,6.340942383E-1,1.476364136E0,1.308155823E1
1.019207066E2,1.186843872E0,8.231353760E-1,1.220339966E1
1.019707066E2,1.186843872E0,3.469543457E-1,1.273220825E1
1.020207066E2,1.866455078E-1,9.308013916E-1,7.637893677E0
1.020707066E2,3.014984131E-1,5.551300049E-1,8.417953491E0
1.021207066E2,-9.809875488E-2,9.020996094E-1,7.546966553E0
1.021707066E2,-3.493499756E-1,1.366302490E0,7.068405151E0
1.022207066E2,1.019348145E0,2.079360962E0,9.099899292E0
1.022707066E2,1.746826172E-1,1.622329712E0,1.082513428E1
1.023207066E2,8.853454590E-1,1.861618042E0,1.211964417E1
1.023707066E2,8.350982666E-1,1.610366821E0,1.209571838E1
1.024207066E2,1.773086548E0,1.469192505E0,1.053559875E1
1.024707066E2,1.387786865E-1,7.896423340E-2,1.277288818E1
1.025207066E2,1.167694092E0,9.714813232E-1,6.953536987E0
1.025707066E2,1.464401245E0,6.269226074E-1,1.014317322E1
1.026207066E2,1.746826172E-1,1.349548340E0,6.577865601E0
1.026707066E2,2.440643311E-1,1.959716797E0,7.922637939E0
1.027207066E2,1.454833984E0,2.227722168E0,9.609573364E0
1.027707066E2,1.024124146E0,2.270782471E0,1.106440735E1
1.028207066E2,1.471588135E0,2.124832153E0,1.293559265E1
1.028707066E2,7.537384033E-1,2.787643433E0,1.168176270E1
1.029207066E2,2.608169556E0,1.517044067E0,1.367259216E1
1.029707066E2,9.567260742E-3,2.584228516E-1,1.052842712E1
1.030207066E2,3.158569336E-1,7.250213623E-1,8.805587769E0
1.030707066E2,3.445739746E-1,1.165298462E0,7.451248169E0
1.031207066E2,-2.536315918E-1,1.342376709E0,6.652053833E0
1.031707066E2,4.187469482E-1,2.096115112E0,6.506088257E0
1.032207066E2,5.001068115E-1,1.861618042E0,8.664413452E0
1.032707066E2,6.580200195E-1,1.655838013E0,1.129412842E1
1.033207066E2,1.239486694E0,1.864013672E0,1.222732544E1
1.033707066E2,2.249298096E-1,2.553146362E0,1.157408142E1
1.034207066E2,2.234893799E0,2.301895142E0,1.210050964E1
1.034707066E2,-8.135986328E-2,-3.804626465E-1,1.222732544E1
1.035207066E2,2.431106567E0,1.146163940E0,7.573287964E0
1.035707066E2,1.143768311E0,1.426116943E0,9.250656128E0
1.036207066E2,2.584228516E-1,2.158325195E0,5.582458496E0
1.036707066E2,3.278198242E-1,2.524429321E0,7.283752441E0
