"Time (s)","Gyroscope x (rad/s)","Gyroscope y (rad/s)","Gyroscope z (rad/s)"
7.555894300E-2,-7.615661621E-2,-2.222747803E-1,4.754638672E-2
1.255589430E-1,-3.950500488E-2,-2.008972168E-1,2.250671387E-2
1.755589430E-1,-4.562377930E-2,-2.271575928E-1,1.074066162E-1
2.255589430E-1,1.431427002E-1,9.780883789E-2,-8.805847168E-2
2.755589430E-1,1.700134277E-1,-1.642456055E-1,1.516723633E-2
3.255589430E-1,1.229705811E-1,2.694702148E-2,-2.255096436E-1
3.755589430E-1,-2.331542969E-1,-5.973510742E-1,2.616882324E-2
4.255589430E-1,9.426879883E-2,7.178344727E-1,-3.061370850E-1
4.755589430E-1,-5.446929932E-1,-9.718170166E-1,1.489562988E-1
5.255589430E-1,-3.858795166E-1,2.120361328E-1,-2.590942383E-1
5.755589430E-1,-4.432983398E-1,-3.236846924E-1,1.880493164E-1
6.255589430E-1,-2.233886719E-1,3.959197998E-1,8.786010742E-2
6.755589430E-1,-3.864898682E-1,-1.178131104E-1,2.729492188E-1
7.255589430E-1,1.362609863E-2,1.619567871E-1,3.236541748E-1
7.755589430E-1,9.915161133E-2,2.041015625E-1,9.063720703E-3
8.255589430E-1,-4.074096680E-2,3.916931152E-2,-8.378601074E-2
8.755589430E-1,3.561401367E-2,-7.247924805E-3,1.605529785E-1
9.255589430E-1,-1.317596436E-1,1.130828857E-1,-2.468872070E-1
9.755589430E-1,1.700134277E-1,-1.226959229E-1,-7.278442383E-2
1.025558943E0,-1.873779297E-2,2.761840820E-1,-2.102355957E-1
1.075558943E0,-4.318237305E-2,-3.065795898E-1,8.724975586E-2
1.125558943E0,-2.960815430E-1,2.023315430E-2,1.165618896E-1
1.175558943E0,-4.867553711E-2,1.698913574E-1,6.526184082E-2
1.225558943E0,-2.050628662E-1,-3.676605225E-1,7.232666016E-3
1.275558943E0,-2.484283447E-1,2.841339111E-1,1.397857666E-1
1.325558943E0,-2.099456787E-1,-4.727325439E-1,-9.872436523E-3
1.375558943E0,-1.561889648E-1,-7.627868652E-2,1.300048828E-1
1.425558943E0,-8.776855469E-2,-5.184936523E-2,1.245117188E-1
1.475558943E0,-1.323547363E-1,-2.557373047E-2,1.629943848E-1
1.525558943E0,-1.855163574E-1,3.531494141E-1,1.642150879E-1
1.575558943E0,3.250122070E-3,6.311035156E-1,-1.405944824E-1
1.625558943E0,2.280426025E-1,5.632934570E-1,-1.296081543E-1
1.675558943E0,2.689666748E-1,3.849182129E-1,2.676391602E-2
1.725558943E0,2.427062988E-1,-2.051696777E-1,1.727752686E-1
1.775558943E0,1.667785645E-2,3.806457520E-1,1.465148926E-1
1.825558943E0,-2.514801025E-1,-3.621673584E-1,-2.810974121E-1
1.875558943E0,-6.883239746E-2,-7.858276367E-3,-4.374847412E-1
1.925558943E0,1.956634521E-1,1.643981934E-1,-1.021118164E-1
1.975558943E0,1.449584961E-1,-1.434783936E-1,-2.392578125E-2
2.025558943E0,7.043457031E-2,-1.349182129E-1,9.825134277E-2
2.075558943E0,7.409667969E-2,1.094207764E-1,1.028442383E-2
2.125558943E0,5.332946777E-2,2.169342041E-1,-1.536560059E-2
2.175558943E0,-1.195373535E-1,3.753662109E-3,-2.941894531E-2
2.225558943E0,-8.654785156E-2,-4.450988770E-2,1.770477295E-1
2.275558943E0,-1.385498047E-2,1.314086914E-1,3.609161377E-1
2.325558943E0,-4.255676270E-2,3.123474121E-2,2.430267334E-1
2.375558943E0,2.359771729E-1,4.282836914E-1,2.808990479E-1
2.425558943E0,-1.305389404E-1,1.894378662E-1,1.379547119E-1
2.475558943E0,1.113739014E-1,-5.106048584E-1,-5.445861816E-2
2.525558943E0,-1.684112549E-1,-8.360290527E-2,1.245117188E-1
2.575558943E0,-2.026214600E-1,-7.994079590E-2,8.114624023E-2
2.625558943E0,-1.385498047E-2,-2.619781494E-1,3.047180176E-1
2.675558943E0,-1.775665283E-1,-2.130126953E-2,4.571533203E-2
2.725558943E0,1.022033691E-1,2.572631836E-2,2.656250000E-1
2.775558943E0,6.616210938E-2,5.569458008E-3,9.764099121E-2
2.825558943E0,3.544921875E-1,2.377014160E-1,-1.414489746E-2
2.875558943E0,1.850891113E-2,-2.021179199E-1,-9.539794922E-2
2.925558943E0,2.347564697E-1,2.792358398E-1,-1.216583252E-1
2.975558943E0,-3.162231445E-1,-4.537963867E-1,-5.364379883E-1
3.025558943E0,-1.720733643E-1,-3.200073242E-1,-3.843231201E-1
3.075558943E0,-2.301025391E-1,-6.431732178E-1,-1.625823975E-1
3.125558943E0,-6.530761719E-3,1.937103271E-1,3.532409668E-2
3.175558943E0,6.005859375E-2,5.339660645E-1,1.501770020E-1
3.225558943E0,1.712341309E-1,3.550720215E-2,6.587219238E-2
3.275558943E0,1.797790527E-1,-2.008972168E-1,2.301940918E-1
3.325558943E0,1.663513184E-1,-1.080322266E-1,9.701538086E-2
3.375558943E0,2.054443359E-1,2.688446045E-1,1.629943848E-1
3.425558943E0,2.634735107E-1,3.329925537E-1,1.128997803E-1
3.475558943E0,-4.390106201E-1,-3.047485352E-1,-1.369323730E-1
3.525558943E0,-2.363586426E-2,4.100036621E-2,-4.652404785E-2
3.575558943E0,-2.985229492E-1,6.848144531E-2,-4.164123535E-2
3.625558943E0,-4.072570801E-1,-1.349182129E-1,8.663940430E-2
3.675558943E0,6.311035156E-2,-1.740112305E-1,1.898803711E-1
3.725558943E0,2.139892578E-1,2.322082520E-1,9.764099121E-2
3.775558943E0,1.400756836E-1,-6.527709961E-2,4.937744141E-2
3.825558943E0,2.591857910E-1,-2.369384766E-1,-2.322235107E-1
3.875558943E0,2.157592773E-2,6.420898438E-2,-2.609405518E-1
3.925558943E0,7.226562500E-2,1.454620361E-1,-3.372955322E-1
3.975558943E0,-2.698059082E-1,7.154846191E-2,-1.949615479E-1
4.025558943E0,-3.376159668E-1,-4.647827148E-1,-7.276306152E-1
4.075558943E0,-8.105468750E-2,3.110046387E-1,9.947204590E-2
4.125558943E0,4.356384277E-2,-1.960144043E-1,-4.774475098E-2
4.175558943E0,-1.141357422E-2,3.488769531E-1,1.642150879E-1
4.225558943E0,2.274322510E-1,-1.275939941E-1,1.579284668E-2
4.275558943E0,1.437377930E-1,-9.643554688E-2,1.141204834E-1
4.325558943E0,2.310943604E-1,1.546173096E-1,1.874237061E-1
4.375558943E0,1.419067383E-1,-3.413391113E-2,8.908081055E-2
4.425558943E0,3.196716309E-1,4.777832031E-1,2.662353516E-1
4.475558943E0,-3.052368164E-1,-6.743164062E-1,-1.326446533E-1
4.525558943E0,-8.593750000E-2,1.962280273E-2,1.794891357E-1
4.575558943E0,-6.467132568E-1,-2.735900879E-1,-2.085876465E-2
4.625558943E0,-1.219787598E-1,1.680603027E-1,4.158935547E-1
4.675558943E0,-1.280822754E-1,-1.080322266E-1,1.629943848E-1
4.725558943E0,2.530822754E-1,-3.181915283E-1,2.637939453E-1
4.775558943E0,6.738281250E-2,-2.552642822E-1,-7.644653320E-2
4.825558943E0,2.951049805E-2,1.527862549E-1,-9.295654297E-2
4.875558943E0,5.088806152E-2,2.267456055E-2,-1.515960693E-1
4.925558943E0,1.034240723E-1,9.841918945E-2,1.703186035E-1
4.975558943E0,-4.897308350E-1,-1.257629395E-1,-4.264831543E-1
5.025558943E0,-2.746887207E-1,3.342132568E-1,-2.383270264E-1
5.075558943E0,-3.913726807E-1,-1.275939941E-1,-1.418151855E-1
5.125558943E0,-2.820281982E-1,-6.527709961E-2,-2.652130127E-1
5.175558943E0,-2.099456787E-1,7.415771484E-3,-1.619720459E-1
5.225558943E0,1.437377930E-1,-1.489715576E-1,-5.996704102E-2
5.275558943E0,6.555175781E-2,2.706909180E-1,2.057647705E-1
5.325558943E0,4.369506836E-1,-1.457214355E-2,3.425903320E-1
5.375558943E0,5.487518311E-1,-7.627868652E-2,2.882232666E-1
5.425558943E0,2.677459717E-1,4.906005859E-1,4.449462891E-2
5.475558943E0,-2.386474609E-1,-6.034545898E-1,-3.611145020E-1
5.525558943E0,-1.115875244E-1,1.020812988E-1,2.314147949E-1
5.575558943E0,-4.103088379E-1,2.041015625E-1,1.965942383E-1
5.625558943E0,-6.039581299E-1,1.168823242E-2,1.202392578E-1
5.675558943E0,1.321411133E-1,-3.114624023E-1,4.769897461E-1
5.725558943E0,8.326721191E-2,1.552429199E-1,4.592742920E-1
5.775558943E0,3.465576172E-1,-3.181915283E-1,2.063751221E-1
5.825558943E0,1.773376465E-1,-1.221008301E-1,-3.796386719E-2
5.875558943E0,4.844665527E-2,3.110046387E-1,-1.858062744E-1
5.925558943E0,-7.676696777E-2,-3.090209961E-1,-3.030853271E-1
5.975558943E0,-4.213104248E-1,-4.159240723E-1,-7.893371582E-1
6.025558943E0,1.179504395E-2,1.085586548E0,-4.713439941E-2
6.075558943E0,-3.669433594E-1,1.784515381E-1,-2.206268311E-1
6.125558943E0,4.478454590E-2,-7.134246826E-1,-1.118774414E-1
6.175558943E0,-6.883239746E-2,3.116149902E-1,-8.134460449E-2
6.225558943E0,1.901702881E-1,-1.049957275E-1,1.593322754E-1
6.275558943E0,1.468048096E-1,-1.984558105E-1,1.318511963E-1
6.325558943E0,1.596221924E-1,1.173553467E-1,1.031341553E-1
6.375558943E0,4.277954102E-1,8.192443848E-2,6.465148926E-2
6.425558943E0,-1.067047119E-1,3.647613525E-1,-1.399841309E-1
6.475558943E0,1.119689941E-1,1.955566406E-1,-3.073730469E-1
6.525558943E0,-2.966766357E-1,5.569458008E-3,-1.841735840E-2
6.575558943E0,-2.319335938E-1,-2.729797363E-1,1.067962646E-1
6.625558943E0,-7.554626465E-2,-1.795196533E-1,2.350769043E-1
6.675558943E0,1.932220459E-1,1.265106201E-1,2.216339111E-1
6.725558943E0,1.797790527E-1,1.716613770E-2,1.300048828E-1
6.775558943E0,2.145996094E-1,-3.175659180E-1,-2.126770020E-1
6.825558943E0,1.553497314E-1,8.804321289E-2,-1.418151855E-1
6.875558943E0,5.577087402E-2,-2.740478516E-2,-4.387054443E-1
6.925558943E0,8.265686035E-2,-1.110992432E-1,-2.994232178E-1
6.975558943E0,-3.577728271E-1,7.154846191E-2,-6.970977783E-1
7.025558943E0,-1.012115479E-1,5.242004395E-1,1.281738281E-1
7.075558943E0,-3.052368164E-1,-7.689971924E-1,-3.153076172E-1
7.125558943E0,1.376342773E-1,3.494873047E-1,1.477355957E-1
7.175558943E0,-2.241516113E-2,6.616516113E-1,1.074066162E-1
7.225558943E0,4.540557861E-1,-3.273468018E-1,2.527923584E-1
7.275558943E0,3.697662354E-1,-3.817138672E-1,2.588958740E-1
7.325558943E0,4.363555908E-1,1.833343506E-1,4.386901855E-2
7.375558943E0,2.060546875E-1,2.835083008E-1,-5.140686035E-2
7.425558943E0,-5.269775391E-1,3.006134033E-1,-2.071838379E-1
7.475558943E0,1.889495850E-1,1.149139404E-1,-3.857421875E-2
7.525558943E0,-4.750671387E-1,-1.972351074E-1,1.159667969E-1
7.575558943E0,-4.867553711E-2,-6.553802490E-1,1.776580811E-1
7.625558943E0,-1.824493408E-1,2.822875977E-1,1.336669922E-1
7.675558943E0,2.005462646E-1,3.611755371E-2,2.161407471E-1
7.725558943E0,1.138153076E-1,-2.857971191E-1,1.061859131E-1
7.775558943E0,1.351928711E-1,-1.520233154E-1,-1.069946289E-1
7.825558943E0,2.017669678E-1,-4.196166992E-3,-2.474975586E-1
7.875558943E0,6.982421875E-2,1.240692139E-1,-2.090148926E-1
7.925558943E0,-5.440826416E-1,-5.062866211E-2,-6.634979248E-1
7.975558943E0,8.448791504E-2,3.384857178E-1,-5.199432373E-1
8.025558943E0,-2.288818359E-1,6.457672119E-1,6.770324707E-2
8.075558943E0,-1.936340332E-2,-6.175079346E-1,-8.927917480E-2
8.125558943E0,5.691528320E-3,3.336029053E-1,9.274291992E-2
8.175558943E0,1.425170898E-1,1.637878418E-1,1.037445068E-1
8.225558943E0,2.378234863E-1,-4.666290283E-1,2.448577881E-1
8.275558943E0,1.950531006E-1,-2.857971191E-1,2.521820068E-1
8.325558943E0,2.860717773E-1,-1.335144043E-2,2.277526855E-1
8.375558943E0,3.911437988E-1,3.568115234E-1,1.813201904E-1
8.425558943E0,-4.432983398E-1,-4.928894043E-1,-2.407684326E-1
8.475558943E0,1.052551270E-1,1.686706543E-1,1.703186035E-1
8.525558943E0,-4.512329102E-1,-5.295410156E-1,1.239013672E-1
8.575558943E0,-1.146545410E-1,-4.311981201E-1,3.383178711E-1
8.625558943E0,-4.011535645E-2,3.983612061E-1,8.724975586E-2
8.675558943E0,1.321411133E-1,3.171234131E-1,9.457397461E-2
8.725558943E0,1.974945068E-1,-1.837921143E-1,-1.057739258E-1
8.775558943E0,1.761169434E-1,-3.096313477E-1,-3.189697266E-1
8.825558943E0,1.956634521E-1,1.307983398E-1,-1.699218750E-1
8.875558943E0,2.848510742E-1,3.171234131E-1,-2.163391113E-1
8.925558943E0,-3.712158203E-1,-3.267364502E-1,-4.869537354E-1
8.975558943E0,-2.844696045E-1,1.552429199E-1,-4.649658203E-1
9.025558943E0,-4.353485107E-1,-1.666870117E-1,-1.552581787E-1
9.075558943E0,4.722595215E-2,1.607208252E-1,2.616882324E-2
9.125558943E0,-1.141357422E-2,5.755004883E-1,1.636199951E-1
9.175558943E0,3.624267578E-1,-4.464569092E-1,3.566436768E-1
9.225558943E0,2.048339844E-1,-6.893920898E-2,5.364990234E-2
9.275558943E0,2.262115479E-1,-1.550903320E-1,1.477355957E-1
9.325558943E0,1.632843018E-1,7.154846191E-2,7.746887207E-2
9.375558943E0,-9.582519531E-3,6.591949463E-1,1.165618896E-1
9.425558943E0,-2.117767334E-1,-4.092102051E-1,-6.729125977E-2
9.475558943E0,-2.575836182E-1,1.393585205E-1,9.825134277E-2
9.525558943E0,-3.999176025E-1,-3.383331299E-1,1.892700195E-1
9.575558943E0,-7.310485840E-2,-1.031494141E-1,1.177825928E-1
9.625558943E0,9.671020508E-2,3.085632324E-1,1.648406982E-1
9.675558943E0,2.292633057E-1,-1.428680420E-1,1.758270264E-1
9.725558943E0,2.017669678E-1,-3.279571533E-1,-1.069946289E-1
9.775558943E0,1.455841064E-1,7.276916504E-2,-3.369140625E-2
9.825558943E0,1.437377930E-1,5.444335938E-2,-2.291717529E-1
9.875558943E0,-1.037597656E-3,1.686706543E-1,-1.414489746E-2
9.925558943E0,-5.135498047E-1,-4.495239258E-1,-8.278198242E-1
9.975558943E0,3.691558838E-1,7.306823730E-1,1.123046875E-1
1.002555894E1,-2.465972900E-1,8.131408691E-2,2.228698730E-1
1.007555894E1,2.767944336E-2,2.523651123E-1,2.747802734E-1
1.012555894E1,-1.030426025E-1,6.359863281E-2,1.642150879E-1
1.017555894E1,2.604217529E-1,-1.685180664E-1,3.755798340E-1
1.022555894E1,1.321411133E-1,1.833343506E-1,3.542022705E-1
1.027555894E1,2.420959473E-1,-1.763916016E-2,2.210235596E-1
1.032555894E1,3.092803955E-1,-1.257629395E-1,8.724975586E-2
1.037555894E1,-2.722473145E-1,-4.562377930E-1,-3.049163818E-1
1.042555894E1,8.743286133E-3,-4.878234863E-2,-1.662597656E-1
1.047555894E1,-5.159912109E-1,-1.367645264E-1,-9.173583984E-2
1.052555894E1,-4.561157227E-1,-1.721801758E-1,4.571533203E-2
1.057555894E1,-1.647949219E-3,-1.702880859E-2,2.289733887E-1
1.062555894E1,3.031768799E-1,-1.477508545E-1,2.136993408E-1
1.067555894E1,2.207183838E-1,-1.874542236E-1,5.915832520E-2
1.072555894E1,1.535186768E-1,-2.124938965E-1,-2.786560059E-1
1.077555894E1,1.150360107E-1,-1.213073730E-2,-3.067474365E-1
1.082555894E1,1.468048096E-1,-6.039428711E-2,-3.910522461E-1
1.087555894E1,-7.725524902E-1,-3.664398193E-1,-5.187225342E-1
1.092555894E1,1.535186768E-1,5.174713135E-1,-6.546020508E-2
1.097555894E1,-1.903991699E-1,1.894378662E-1,4.910430908E-1
1.102555894E1,5.444793701E-1,-4.085845947E-1,2.314147949E-1
1.107555894E1,1.718444824E-1,6.756896973E-1,1.263427734E-1
1.112555894E1,3.500366211E-2,3.568115234E-1,-8.651733398E-3
1.117555894E1,4.717864990E-1,-4.006500244E-1,1.666564941E-1
1.122555894E1,-2.851867676E-2,2.114257812E-1,-4.652404785E-2
1.127555894E1,1.907806396E-1,-9.155273438E-2,-2.148437500E-2
1.132555894E1,1.498565674E-1,6.634826660E-1,2.372741699E-2
1.137555894E1,-1.677856445E-1,-6.248474121E-1,-1.674804688E-1
1.142555894E1,-2.777557373E-1,2.358703613E-1,-3.247070312E-2
1.147555894E1,-6.674804688E-1,-5.123901367E-2,-8.010864258E-2
1.152555894E1,-2.209320068E-1,2.938842773E-2,9.642028809E-2
1.157555894E1,-6.272888184E-2,4.050750732E-1,1.306304932E-1
1.162555894E1,2.408599854E-1,-2.131195068E-1,4.036865234E-1
1.167555894E1,2.243804932E-1,-3.468933105E-1,4.449462891E-2
1.172555894E1,2.396392822E-1,-3.962707520E-2,-1.546478271E-1
1.177555894E1,1.724548340E-1,-8.116149902E-2,-3.250732422E-1
1.182555894E1,1.327514648E-1,5.174713135E-1,-1.326446533E-1
1.187555894E1,-4.732208252E-1,-7.018127441E-1,-6.592254639E-1
1.192555894E1,8.265686035E-2,2.266998291E-1,-1.033325195E-1
1.197555894E1,-3.046264648E-1,4.161071777E-2,-1.247100830E-1
1.202555894E1,6.860351562E-2,4.380645752E-1,-6.912231445E-2
1.207555894E1,4.478454590E-2,4.123992920E-1,7.441711426E-2
1.212555894E1,3.099060059E-1,-2.033386230E-1,9.030151367E-2
1.217555894E1,3.893127441E-1,-9.155273438E-2,1.972045898E-1
1.222555894E1,3.294525146E-1,1.907348633E-3,-9.721374512E-2
1.227555894E1,4.119110107E-1,-1.144409180E-3,3.227233887E-2
1.232555894E1,5.210876465E-2,5.278625488E-1,-7.951354980E-2
1.237555894E1,8.326721191E-2,-2.852020264E-1,-1.363220215E-1
1.242555894E1,-2.582092285E-1,1.259155273E-1,4.020690918E-2
1.247555894E1,-5.190429688E-1,-2.984619141E-2,1.306304932E-1
1.252555894E1,8.087158203E-4,-1.709594727E-1,3.450469971E-1
1.257555894E1,5.455017090E-2,1.289672852E-1,3.034973145E-1
1.262555894E1,2.023925781E-1,-1.514129639E-1,2.222595215E-1
1.267555894E1,6.738281250E-2,-4.263153076E-1,-1.155395508E-1
1.272555894E1,1.168670654E-1,-3.462829590E-1,-2.731628418E-1
1.277555894E1,-8.166503906E-2,-2.705383301E-1,-4.637451172E-1
1.282555894E1,-2.771301270E-1,-2.729797363E-1,-5.339965820E-1
1.287555894E1,-9.938049316E-2,-2.992401123E-1,-9.787139893E-1
1.292555894E1,-1.080322266E-2,8.143615723E-1,-7.156372070E-2
1.297555894E1,-2.973022461E-1,-1.587524414E-1,-1.414489746E-2
1.302555894E1,-4.699707031E-3,6.097106934E-1,1.526184082E-1
1.307555894E1,-1.873779297E-2,3.818664551E-1,2.002563477E-1
1.312555894E1,2.604217529E-1,-4.104309082E-1,3.700866699E-1
1.317555894E1,-4.255676270E-2,9.246826172E-3,1.098480225E-1
1.322555894E1,2.280426025E-1,8.009338379E-2,2.644042969E-1
1.327555894E1,1.577911377E-1,1.943359375E-1,2.372741699E-2
1.332555894E1,-5.520324707E-1,-4.226379395E-1,-1.357116699E-1
1.337555894E1,2.097167969E-1,3.238372803E-1,-2.575683594E-2
1.342555894E1,-3.351745605E-1,1.631774902E-1,1.513977051E-1
1.347555894E1,-2.490386963E-1,-5.338134766E-1,2.686767578E-1
1.352555894E1,-1.293029785E-1,1.039276123E-1,2.167510986E-1
1.357555894E1,2.616424561E-1,-1.569061279E-1,2.766265869E-1
1.362555894E1,1.284790039E-1,-1.929473877E-1,-5.384826660E-2
1.367555894E1,-6.517028809E-2,-4.146881104E-1,-3.470764160E-1
1.372555894E1,-2.789306641E-2,-1.966247559E-1,-4.185333252E-1
1.377555894E1,4.600524902E-2,-9.155273438E-2,-4.835510254E-2
1.382555894E1,-3.767089844E-1,-4.544067383E-1,-2.969818115E-1
1.387555894E1,1.541290283E-1,4.808197021E-1,-1.100616455E-1
1.392555894E1,-3.779296875E-1,4.484558105E-1,1.862030029E-1
1.397555894E1,-3.137817383E-1,-6.419525146E-1,7.746887207E-2
1.402555894E1,-2.142181396E-1,5.590209961E-1,-4.225158691E-2
1.407555894E1,-2.007751465E-1,5.064849854E-1,2.418060303E-1
1.412555894E1,4.235229492E-1,-6.150665283E-1,1.856079102E-1
1.417555894E1,3.099060059E-1,1.326293945E-1,3.865814209E-1
1.422555894E1,2.830200195E-1,1.094207764E-1,5.426025391E-2
1.427555894E1,3.691558838E-1,5.272521973E-1,9.764099121E-2
1.432555894E1,-6.228942871E-1,-2.198333740E-1,-5.859222412E-1
1.437555894E1,1.920013428E-1,5.333557129E-1,2.014923096E-1
1.442555894E1,-4.915466309E-1,1.246948242E-1,3.389282227E-1
1.447555894E1,8.326721191E-2,-6.517181396E-1,4.928588867E-1
1.452555894E1,-9.582519531E-3,2.297515869E-1,1.929321289E-1
1.457555894E1,4.522399902E-1,-1.905059814E-1,3.138732910E-1
1.462555894E1,2.200927734E-1,-3.823242188E-1,-1.515960693E-1
1.467555894E1,9.852600098E-2,-1.349182129E-1,5.364990234E-2
1.472555894E1,-2.119445801E-2,2.377014160E-1,-3.727264404E-1
1.477555894E1,-3.370056152E-1,7.202911377E-1,-5.874633789E-2
1.482555894E1,-5.428619385E-1,-9.583740234E-1,-8.339385986E-1
1.487555894E1,-1.561889648E-1,5.828399658E-1,-3.491210938E-2
1.492555894E1,-6.430511475E-1,3.800354004E-1,-8.744812012E-2
1.497555894E1,2.042236328E-1,3.714752197E-1,1.990356445E-1
1.502555894E1,-6.028747559E-2,2.810668945E-1,-4.225158691E-2
1.507555894E1,2.805786133E-1,-3.560638428E-1,2.063751221E-1
1.512555894E1,3.117370605E-1,-2.027282715E-1,2.808990479E-1
1.517555894E1,1.425170898E-1,-1.954040527E-1,3.028869629E-1
1.522555894E1,2.243804932E-1,2.248687744E-1,1.794891357E-1
1.527555894E1,-5.526428223E-1,-5.582580566E-1,-1.534271240E-1
1.532555894E1,1.590118408E-1,2.810668945E-1,3.022766113E-1
1.537555894E1,-3.260040283E-1,2.230377197E-1,2.100372314E-1
1.542555894E1,-2.893524170E-1,-1.868438721E-1,2.173614502E-1
1.547555894E1,-4.377746582E-2,-5.753479004E-1,3.255004883E-1
1.552555894E1,1.394653320E-1,-5.191650391E-1,3.010559082E-1
1.557555894E1,2.304840088E-1,-2.552642822E-1,-2.270507812E-2
1.562555894E1,1.339721680E-1,-2.351074219E-1,-3.238525391E-1
1.567555894E1,8.021545410E-2,9.292602539E-2,-5.278778076E-1
1.572555894E1,-2.746887207E-1,4.087371826E-1,-3.910522461E-1
1.577555894E1,-7.310180664E-1,-7.635040283E-1,-9.799346924E-1
1.582555894E1,4.559020996E-1,4.123992920E-1,-4.286193848E-2
1.587555894E1,-3.559417725E-1,3.336029053E-1,2.271423340E-1
1.592555894E1,4.478454590E-2,2.377014160E-1,1.532135010E-1
1.597555894E1,2.767944336E-2,3.757629395E-1,5.609130859E-2
1.602555894E1,3.691558838E-1,3.916931152E-2,2.851715088E-1
1.607555894E1,4.009246826E-1,-1.508026123E-1,1.440582275E-1
1.612555894E1,3.196716309E-1,-9.948730469E-2,3.548126221E-1
1.617555894E1,5.689086914E-1,-3.285675049E-1,2.106475830E-1
1.622555894E1,-6.088256836E-2,7.233428955E-1,2.375183105E-1
1.627555894E1,1.083068848E-1,-5.533599854E-1,-4.469299316E-2
1.632555894E1,-1.476440430E-1,6.610260010E-1,1.892700195E-1
1.637555894E1,-2.746887207E-1,-6.285095215E-1,1.037445068E-1
1.642555894E1,3.500366211E-2,-3.718566895E-2,2.992248535E-1
1.647555894E1,-1.403045654E-1,3.824768066E-1,1.318511963E-1
1.652555894E1,2.817993164E-1,-3.652191162E-1,2.613525391E-1
1.657555894E1,-1.146545410E-1,-3.743743896E-1,-1.772460938E-1
1.662555894E1,3.398284912E-1,-5.857543945E-1,4.264831543E-2
1.667555894E1,4.661560059E-2,1.998291016E-1,-2.664337158E-1
1.672555894E1,-4.194641113E-1,-3.023071289E-1,-4.216003418E-1
1.677555894E1,-1.739044189E-1,2.401428223E-1,-6.225738525E-1
1.682555894E1,-2.520904541E-1,1.056259155E0,9.519958496E-2
1.687555894E1,-7.737731934E-2,-3.914794922E-1,-1.125030518E-1
1.692555894E1,3.805541992E-2,3.782043457E-1,7.014465332E-2
1.697555894E1,1.301574707E-2,3.189392090E-1,1.727752686E-1
1.702555894E1,2.964630127E-1,-3.059692383E-1,1.403961182E-1
1.707555894E1,6.555175781E-2,-1.373596191E-1,1.770477295E-1
1.712555894E1,3.050079346E-1,-8.544921875E-2,7.014465332E-2
1.717555894E1,3.325042725E-1,7.526702881E-1,1.153411865E-1
1.722555894E1,-3.217315674E-1,-5.368804932E-1,-2.694854736E-1
1.727555894E1,2.817993164E-1,1.307983398E-1,-5.201721191E-2
1.732555894E1,-4.414520264E-1,3.348236084E-1,-1.418151855E-1
1.737555894E1,-3.663177490E-1,-5.429840088E-1,-6.546020508E-2
1.742555894E1,1.240539551E-2,6.866455078E-4,-4.469299316E-2
1.747555894E1,-6.210327148E-2,1.918945312E-1,-6.790161133E-2
1.752555894E1,2.879180908E-1,-2.570953369E-1,-7.217407227E-2
1.757555894E1,-8.972167969E-3,-2.801513672E-2,-2.920837402E-1
1.762555894E1,5.883789062E-2,-7.322692871E-2,-2.310028076E-1
1.767555894E1,-1.684112549E-1,8.682250977E-2,-2.224426270E-1
1.772555894E1,-3.602142334E-1,-5.124359131E-1,-6.335754395E-1
1.777555894E1,-1.146545410E-1,1.460723877E-1,-1.766357422E-1
1.782555894E1,-3.455505371E-1,-5.856323242E-2,-1.570892334E-1
1.787555894E1,7.531738281E-2,3.690338135E-1,-7.431030273E-3
1.792555894E1,1.156311035E-1,1.894378662E-1,7.380676270E-2
1.797555894E1,3.605957031E-1,-3.627777100E-1,-9.477233887E-2
1.802555894E1,9.671020508E-2,-2.130126953E-2,-4.591369629E-2
1.807555894E1,1.913909912E-1,2.755737305E-1,-7.951354980E-2
1.812555894E1,2.433166504E-1,8.901062012E-1,9.642028809E-2
1.817555894E1,-4.200897217E-1,-1.885986328E-2,-3.369140625E-2
1.822555894E1,1.254119873E-1,-3.890380859E-1,-1.167602539E-1
1.827555894E1,-3.070678711E-1,3.562164307E-1,3.499298096E-1
1.832555894E1,-3.223419189E-1,-2.473297119E-1,3.829040527E-1
1.837555894E1,5.944824219E-2,-3.951416016E-1,1.532135010E-1
1.842555894E1,2.317047119E-1,1.307983398E-1,3.755798340E-1
1.847555894E1,2.200927734E-1,-5.123901367E-2,-2.148437500E-2
1.852555894E1,3.845214844E-3,-3.004608154E-1,-1.015014648E-1
1.857555894E1,1.118469238E-2,-3.475036621E-1,-2.872009277E-1
1.862555894E1,-7.141113281E-3,4.050750732E-1,-9.233093262E-2
1.867555894E1,-4.903259277E-1,-5.600891113E-1,-6.879425049E-1
1.872555894E1,2.646942139E-1,1.246856689E0,1.214599609E-1
1.877555894E1,-3.431091309E-1,2.572479248E-1,6.404113770E-2
1.882555894E1,1.828308105E-1,5.322265625E-2,1.947631836E-1
1.887555894E1,6.127929688E-2,3.366699219E-1,6.465148926E-2
1.892555894E1,4.339141846E-1,-3.975982666E-1,4.788208008E-1
1.897555894E1,2.714080811E-1,-2.723693848E-1,2.503509521E-1
1.902555894E1,1.339721680E-1,-1.630249023E-1,1.410064697E-1
1.907555894E1,3.612060547E-1,1.289672852E-1,1.287841797E-1
1.912555894E1,-4.408569336E-1,1.312255859E-3,-1.576995850E-1
1.917555894E1,3.037872314E-1,-6.712341309E-2,1.330718994E-1
1.922555894E1,-5.428619385E-1,1.582794189E-1,2.485198975E-1
1.927555894E1,-3.180694580E-1,-1.029968262E-2,1.336669922E-1
1.932555894E1,2.401733398E-2,-2.740478516E-2,3.279418945E-1
1.937555894E1,1.809997559E-1,-1.471405029E-1,1.929321289E-1
1.942555894E1,2.640838623E-1,-4.330291748E-1,5.731201172E-2
1.947555894E1,6.860351562E-2,-3.792724609E-1,-1.576995850E-1
1.952555894E1,1.620635986E-1,-2.167816162E-1,-2.456665039E-1
1.957555894E1,5.699157715E-2,3.427734375E-1,-2.572784424E-1
1.962555894E1,-6.265563965E-1,-1.727905273E-1,-7.899475098E-1
1.967555894E1,-9.814453125E-2,6.060485840E-1,-6.912231445E-2
1.972555894E1,-5.953979492E-1,-3.047485352E-1,-8.317565918E-2
1.977555894E1,-4.196166992E-2,4.771423340E-2,9.674072266E-3
1.982555894E1,-6.333923340E-2,5.559539795E-1,2.625732422E-1
1.987555894E1,3.667144775E-1,-3.499450684E-1,2.350769043E-1
1.992555894E1,2.879180908E-1,-3.493347168E-1,2.014923096E-1
1.997555894E1,1.730651855E-1,6.604003906E-2,1.330718994E-1
2.002555894E1,4.632263184E-1,1.979980469E-1,1.959838867E-1
2.007555894E1,-2.814178467E-1,-1.031494141E-1,-1.821289062E-1
2.012555894E1,4.186248779E-1,3.366699219E-1,-6.851196289E-2
2.017555894E1,-6.436614990E-1,4.130249023E-1,-1.277618408E-1
2.022555894E1,-2.661437988E-1,-5.374755859E-1,1.355133057E-1
2.027555894E1,-1.708526611E-1,3.910369873E-1,3.096160889E-1
2.032555894E1,2.408599854E-1,-2.375488281E-1,2.130889893E-1
2.037555894E1,1.828308105E-1,-3.896636963E-1,2.240905762E-1
2.042555894E1,1.107482910E-1,-3.139038086E-1,-1.583099365E-1
2.047555894E1,9.915161133E-2,-5.087738037E-1,-2.053527832E-1
2.052555894E1,-7.983398438E-2,1.595001221E-1,-3.085937500E-1
2.057555894E1,-6.705322266E-1,-4.450988770E-2,-4.387054443E-1
2.062555894E1,-4.806518555E-2,2.224273682E-1,-5.358276367E-1
2.067555894E1,-3.871002197E-1,4.099578857E-1,1.177825928E-1
2.072555894E1,2.035522461E-2,2.511596680E-2,-9.965515137E-2
2.077555894E1,-9.814453125E-2,9.719696045E-1,8.358764648E-2
2.082555894E1,1.199188232E-1,1.020812988E-1,2.198028564E-1
2.087555894E1,4.357299805E-1,-3.132934570E-1,1.672821045E-1
2.092555894E1,2.524871826E-1,3.489685059E-2,2.967681885E-1
2.097555894E1,3.899230957E-1,-2.412109375E-1,1.452789307E-1
2.102555894E1,2.750701904E-1,6.622467041E-1,3.303833008E-1
2.107555894E1,-2.331542969E-1,-9.284362793E-1,-2.694854736E-1
2.112555894E1,-8.837890625E-2,7.948150635E-1,1.807098389E-1
2.117555894E1,-5.031585693E-1,-7.903900146E-1,4.386901855E-2
2.122555894E1,-2.349853516E-1,-2.803192139E-1,3.187713623E-1
2.127555894E1,-3.498382568E-1,2.749633789E-1,1.788787842E-1
2.132555894E1,1.981048584E-1,-5.124359131E-1,3.377075195E-1
2.137555894E1,8.743286133E-3,-2.618408203E-2,3.105163574E-2
2.142555894E1,-3.157043457E-2,1.674499512E-1,-6.362915039E-2
2.147555894E1,1.321411133E-1,-1.532440186E-1,-1.597595215E-2
2.152555894E1,-1.317596436E-1,6.170501709E-1,-1.552581787E-1
2.157555894E1,-5.135498047E-1,-5.160980225E-1,-3.702850342E-1
2.162555894E1,1.816101074E-1,3.232269287E-1,2.432250977E-2
2.167555894E1,-1.335754395E-1,2.896270752E-1,1.941528320E-1
2.172555894E1,-1.128082275E-1,-4.324188232E-1,-3.531799316E-1
2.177555894E1,-9.448242188E-2,1.729431152E-1,-1.961822510E-1
2.182555894E1,1.125946045E-1,1.051483154E-1,1.213073730E-2
2.187555894E1,2.720336914E-1,-1.746368408E-1,1.507720947E-1
2.192555894E1,2.152099609E-1,-1.544647217E-1,-1.204376221E-1
2.197555894E1,3.160095215E-1,1.020812988E-1,-7.522583008E-2
2.202555894E1,-1.629638672E-2,1.128967285E0,-3.735351562E-2
2.207555894E1,2.256011963E-1,-1.148971558E0,-2.817077637E-1
2.212555894E1,-1.231994629E-1,1.967773438E-1,5.487060547E-2
2.217555894E1,-3.681640625E-1,2.395324707E-1,1.953735352E-1
2.222555894E1,-1.525268555E-1,-1.575317383E-1,1.892700195E-1
2.227555894E1,6.738281250E-2,3.427124023E-2,9.213256836E-2
2.232555894E1,2.628631592E-1,-1.019287109E-1,2.674560547E-1
2.237555894E1,1.302947998E-1,-3.059692383E-1,-1.130981445E-1
2.242555894E1,1.040344238E-1,-1.752319336E-1,-9.417724609E-2
2.247555894E1,-1.019287109E-2,8.436584473E-2,-3.867797852E-1
2.252555894E1,-6.399993896E-1,1.747894287E-1,-3.702850342E-1
2.257555894E1,7.838439941E-2,1.277313232E-1,-3.617248535E-1
2.262555894E1,-9.814453125E-2,7.679290771E-1,4.293365479E-1
2.267555894E1,-7.920837402E-2,-4.690704346E-1,1.287841797E-1
2.272555894E1,1.423645020E-2,4.508972168E-1,1.080169678E-1
2.277555894E1,1.596221924E-1,7.575531006E-1,1.269531250E-1
2.282555894E1,4.705657959E-1,-8.482360840E-2,2.637939453E-1
2.287555894E1,2.732543945E-1,-2.374267578E-2,1.324462891E-1
2.292555894E1,2.928009033E-1,-2.839813232E-1,1.123046875E-1
2.297555894E1,1.443634033E-1,5.486297607E-1,-5.079650879E-2
2.302555894E1,-2.606506348E-1,-9.986877441E-1,-4.142761230E-1
2.307555894E1,-2.973937988E-2,3.861389160E-1,-1.008911133E-1
2.312555894E1,-5.489807129E-1,-8.087158203E-1,-1.644134521E-1
2.317555894E1,4.112243652E-2,-6.834411621E-2,1.086273193E-1
2.322555894E1,-1.830749512E-1,6.701965332E-1,1.086273193E-1
2.327555894E1,3.227233887E-1,-3.792724609E-1,1.923217773E-1
2.332555894E1,-8.361816406E-3,-3.358917236E-1,1.213073730E-2
2.337555894E1,2.054443359E-1,-4.580688477E-1,1.184082031E-1
2.342555894E1,1.333618164E-1,-1.618041992E-1,-9.477233887E-2
2.347555894E1,8.815002441E-2,2.981719971E-1,-6.820678711E-3
2.352555894E1,-3.034057617E-1,-2.937469482E-1,-6.036376953E-1
2.357555894E1,6.738281250E-2,6.268157959E-1,1.733856201E-1
2.362555894E1,-2.997436523E-1,2.596893311E-1,9.063720703E-3
2.367555894E1,-1.506805420E-1,1.657104492E-2,-1.833496094E-1
2.372555894E1,-5.477905273E-2,3.079528809E-1,1.422271729E-1
2.377555894E1,1.547393799E-1,-2.557373047E-2,2.399749756E-1
2.382555894E1,2.604217529E-1,-6.222534180E-2,3.670349121E-1
2.387555894E1,3.086853027E-1,-8.482360840E-2,2.466888428E-1
2.392555894E1,1.370239258E-1,3.201599121E-1,2.027130127E-1
2.397555894E1,-2.533111572E-1,2.548065186E-1,8.480834961E-2
2.402555894E1,-5.844116211E-2,-6.236267090E-1,-1.589202881E-1
2.407555894E1,-4.463500977E-1,-1.819610596E-1,1.446685791E-1
2.412555894E1,-4.390106201E-1,-1.752319336E-1,2.432250977E-2
2.417555894E1,-2.056884766E-2,1.167449951E-1,1.434478760E-1
2.422555894E1,5.455017090E-2,2.102050781E-1,1.410064697E-1
2.427555894E1,2.457580566E-1,-3.615570068E-1,1.165618896E-1
2.432555894E1,2.335357666E-1,-1.135406494E-1,5.915832520E-2
2.437555894E1,5.088806152E-2,2.315979004E-1,-5.690002441E-2
2.442555894E1,2.408599854E-1,-5.307006836E-2,-9.173583984E-2
2.447555894E1,-4.359741211E-1,-6.285095215E-1,-4.050903320E-1
2.452555894E1,3.215026855E-1,4.460144043E-1,-5.567932129E-2
2.457555894E1,-5.599670410E-1,4.576110840E-1,8.297729492E-2
2.462555894E1,2.462768555E-2,-4.617462158E-1,-2.248992920E-1
2.467555894E1,-3.706359863E-2,7.783203125E-1,1.996459961E-1
2.472555894E1,1.913909912E-1,3.855895996E-2,1.257324219E-1
2.477555894E1,3.471679688E-1,-2.821350098E-1,2.931060791E-1
2.482555894E1,2.420959473E-1,-2.045593262E-1,2.576751709E-1
2.487555894E1,4.302520752E-1,2.450561523E-2,1.935424805E-1
2.492555894E1,-1.861114502E-1,2.383117676E-1,1.446685791E-1
2.497555894E1,2.054443359E-1,-4.012603760E-1,9.063720703E-3
2.502555894E1,-5.660858154E-1,2.578582764E-1,2.250671387E-2
2.507555894E1,-4.927673340E-1,-5.771942139E-1,1.629943848E-1
2.512555894E1,-1.311340332E-1,-1.153717041E-1,1.061859131E-1
2.517555894E1,1.046447754E-1,2.560272217E-1,2.760009766E-1
2.522555894E1,8.937072754E-2,-2.906951904E-1,3.349304199E-2
2.527555894E1,4.722595215E-2,-6.706542969E-1,-7.095336914E-2
2.532555894E1,-8.227539062E-2,4.956054688E-2,-1.589202881E-1
2.537555894E1,-2.117767334E-1,3.861389160E-1,-1.601409912E-1
2.542555894E1,-5.520324707E-1,-9.826660156E-2,-1.998443604E-1
2.547555894E1,2.549285889E-1,2.199859619E-1,-1.528167725E-1
2.552555894E1,-7.066345215E-2,8.302459717E-1,1.831665039E-1
2.557555894E1,2.828979492E-2,-7.488555908E-1,-8.010864258E-2
2.562555894E1,1.797790527E-1,2.615203857E-1,-1.479339600E-1
2.567555894E1,-2.233886719E-1,5.455780029E-1,-7.278442383E-2
2.572555894E1,3.868713379E-1,-3.468933105E-1,1.733856201E-1
2.577555894E1,6.433105469E-2,-3.756103516E-1,1.465148926E-1
2.582555894E1,3.740386963E-1,-1.679077148E-1,9.642028809E-2
2.587555894E1,9.182739258E-2,8.540649414E-1,-1.485290527E-1
2.592555894E1,-5.310058594E-3,-1.100708008E0,-3.091888428E-1
2.597555894E1,-6.883239746E-2,5.449676514E-1,1.947631836E-1
2.602555894E1,-3.156280518E-1,-7.688903809E-2,2.006530762E-2
2.607555894E1,-1.213684082E-1,-4.177551270E-1,1.452789307E-1
2.612555894E1,2.217102051E-2,3.378906250E-1,1.794891357E-1
2.617555894E1,2.231597900E-1,-1.385803223E-1,2.595214844E-1
2.622555894E1,2.084960938E-1,-3.175659180E-1,1.080169678E-1
2.627555894E1,2.274322510E-1,-3.023071289E-1,1.080169678E-1
2.632555894E1,1.871185303E-1,2.914581299E-1,-1.613616943E-1
2.637555894E1,1.162567139E-1,-4.084777832E-2,-1.130981445E-1
2.642555894E1,1.437377930E-1,-7.818298340E-1,-6.360168457E-1
2.647555894E1,6.921386719E-2,7.178344727E-1,-6.301879883E-2
2.652555894E1,-5.049896240E-1,-3.102416992E-1,-1.735839844E-1
2.657555894E1,2.750701904E-1,9.963989258E-2,2.738952637E-2
2.662555894E1,-8.349609375E-2,7.563323975E-1,3.471374512E-2
2.667555894E1,5.921325684E-1,-2.173919678E-1,3.114318848E-1
2.672555894E1,1.498565674E-1,4.973297119E-1,-9.262084961E-3
2.677555894E1,2.182769775E-1,-1.459197998E-1,9.674072266E-3
2.682555894E1,2.145996094E-1,6.811981201E-1,1.135253906E-1
2.687555894E1,-7.035217285E-1,-4.739532471E-1,-1.815185547E-1
2.692555894E1,3.147888184E-1,5.569458008E-3,2.790679932E-1
2.697555894E1,-5.483703613E-1,1.918945312E-1,1.984252930E-1
2.702555894E1,-2.569732666E-1,-2.247161865E-1,1.000823975E-1
2.707555894E1,-4.133605957E-2,8.926391602E-2,1.526184082E-1
2.712555894E1,9.182739258E-2,1.625671387E-1,-3.158569336E-3
2.717555894E1,1.846771240E-1,-2.320404053E-1,-2.085876465E-2
2.722555894E1,2.976837158E-1,-1.404266357E-1,-8.439636230E-2
2.727555894E1,2.567443848E-1,1.081848145E-1,-3.562316895E-1
2.732555894E1,3.373870850E-1,2.761840820E-1,-7.888793945E-2
2.737555894E1,-4.988861084E-1,-5.771942139E-1,-6.897583008E-1
2.742555894E1,3.073120117E-2,3.439941406E-1,-1.369323730E-1
2.747555894E1,-4.029846191E-1,2.407531738E-1,-4.164123535E-2
2.752555894E1,3.805541992E-2,2.633666992E-2,-1.039428711E-1
2.757555894E1,3.805541992E-2,3.360443115E-1,6.011962891E-3
2.762555894E1,3.031768799E-1,-2.882537842E-1,8.663940430E-2
2.767555894E1,1.950531006E-1,-1.923370361E-1,1.348876953E-1
2.772555894E1,2.170410156E-1,-1.159820557E-1,-2.514648438E-2
2.777555894E1,2.127685547E-1,-2.821350098E-1,3.898620605E-2
2.782555894E1,-1.885528564E-1,4.869384766E-1,-1.048278809E-2
2.787555894E1,1.070861816E-1,-3.261260986E-1,-5.323791504E-2
2.792555894E1,-4.848327637E-1,5.200195312E-2,2.466888428E-1
2.797555894E1,-3.632659912E-1,-8.299255371E-2,6.587219238E-2
2.802555894E1,-3.137817383E-1,1.631774902E-1,4.693603516E-2
2.807555894E1,6.188964844E-2,8.375549316E-2,7.807922363E-2
2.812555894E1,9.915161133E-2,-1.764526367E-1,3.654479980E-2
2.817555894E1,2.579650879E-1,5.200195312E-2,-9.417724609E-2
2.822555894E1,4.119110107E-1,-3.707122803E-1,-3.247070312E-2
2.827555894E1,2.457580566E-1,1.289672852E-1,-2.426147461E-1
2.832555894E1,-2.954559326E-1,-7.317504883E-1,-4.674072266E-1
2.837555894E1,1.565704346E-1,6.255950928E-1,-1.479339600E-1
2.842555894E1,-2.368164062E-1,1.460723877E-1,1.025238037E-1
2.847555894E1,-1.445770264E-1,-4.971618652E-1,-1.528167725E-1
2.852555894E1,-1.146545410E-1,6.475982666E-1,8.786010742E-2
2.857555894E1,1.529083252E-1,2.273101807E-1,1.880493164E-1
2.862555894E1,3.807525635E-1,-1.611938477E-1,2.155303955E-1
2.867555894E1,2.706909180E-2,7.398986816E-2,-2.880859375E-2
2.872555894E1,2.396392822E-1,-1.349182129E-1,2.616882324E-2
2.877555894E1,-4.377746582E-2,8.827819824E-1,2.372741699E-2
2.882555894E1,-3.706054688E-1,-8.783416748E-1,-2.270507812E-2
2.887555894E1,-9.692382812E-2,-2.803192139E-1,2.494812012E-2
2.892555894E1,-4.121398926E-1,2.352600098E-1,9.886169434E-2
2.897555894E1,-3.962554932E-1,-4.629669189E-1,1.177825928E-1
2.902555894E1,-1.219787598E-1,4.344177246E-2,2.369079590E-1
2.907555894E1,3.250122070E-3,-8.299255371E-2,1.318511963E-1
2.912555894E1,1.541290283E-1,-1.917266846E-1,1.410064697E-1
2.917555894E1,4.783630371E-2,-8.604431152E-2,-1.658630371E-2
2.922555894E1,1.058654785E-1,8.253479004E-2,-6.057739258E-2
2.927555894E1,-3.034973145E-2,3.446044922E-1,1.318511963E-1
2.932555894E1,-3.742675781E-1,-8.074951172E-1,-3.684539795E-1
2.937555894E1,2.677459717E-1,8.106994629E-1,3.077697754E-1
2.942555894E1,-4.463500977E-1,-4.012603760E-1,5.609130859E-2
2.947555894E1,7.522583008E-3,-1.202545166E-1,-6.546020508E-2
2.952555894E1,-4.272460938E-4,4.997711182E-1,1.220703125E-1
2.957555894E1,2.524871826E-1,-4.389953613E-2,1.733856201E-1
2.962555894E1,2.671356201E-1,-4.206848145E-2,1.257324219E-1
2.967555894E1,2.390441895E-1,-2.143402100E-1,5.487060547E-2
2.972555894E1,2.188720703E-1,1.240692139E-1,-7.829284668E-2
2.977555894E1,-3.864898682E-1,4.967041016E-1,-2.804870605E-1
2.982555894E1,2.475891113E-1,-1.519775391E-2,-6.973266602E-2
2.987555894E1,-3.052368164E-1,-3.688812256E-1,7.502746582E-2
2.992555894E1,-3.192901611E-1,-1.642456055E-1,-8.651733398E-3
2.997555894E1,-2.343750000E-1,2.951202393E-1,-6.851196289E-2
3.002555894E1,2.359771729E-1,-1.960144043E-1,6.831359863E-2
3.007555894E1,5.065917969E-3,-3.167724609E-2,-1.699218750E-1
3.012555894E1,-3.479003906E-3,-3.230743408E-1,-2.462768555E-1
3.017555894E1,3.744506836E-2,-4.568481445E-1,-2.163391113E-1
3.022555894E1,2.157592773E-2,3.274993896E-1,-1.760253906E-1
3.027555894E1,-3.284454346E-1,-3.090209961E-1,-2.847595215E-1
3.032555894E1,4.112243652E-2,2.279205322E-1,-4.832916260E-1
3.037555894E1,-2.826385498E-1,5.199279785E-1,-2.024841309E-2
3.042555894E1,-2.661437988E-1,-9.399414062E-2,1.611633301E-1
3.047555894E1,-9.204101562E-2,4.123992920E-1,1.623840332E-1
3.052555894E1,7.522583008E-3,2.621307373E-1,2.124786377E-1
3.057555894E1,2.989044189E-1,-2.173919678E-1,2.918853760E-1
3.062555894E1,2.775268555E-1,-4.206848145E-2,1.690979004E-1
3.067555894E1,1.999359131E-1,-3.707122803E-1,8.541870117E-2
3.072555894E1,1.535186768E-1,9.786834717E-1,6.709289551E-2
3.077555894E1,-2.624816895E-1,-8.441467285E-1,-2.230682373E-1
3.082555894E1,-2.607727051E-2,5.144195557E-1,2.006530762E-2
3.087555894E1,-3.877105713E-1,-2.583160400E-1,9.674072266E-3
3.092555894E1,-4.377746582E-2,-1.764526367E-1,1.886596680E-1
3.097555894E1,-1.054840088E-1,5.443572998E-1,2.222595215E-1
3.102555894E1,2.842407227E-1,-2.662506104E-1,1.666564941E-1
3.107555894E1,3.805541992E-2,-2.760314941E-1,6.465148926E-2
3.112555894E1,1.871185303E-1,-3.352813721E-1,-2.819824219E-2
3.117555894E1,4.844665527E-2,-3.737792969E-1,-1.210479736E-1
3.122555894E1,1.419067383E-1,3.091735840E-1,-3.247070312E-2
3.127555894E1,-4.548950195E-1,-5.710906982E-1,-5.645294189E-1
3.132555894E1,2.402648926E-1,4.227905273E-1,-1.312255859E-3
3.137555894E1,-2.618713379E-1,1.161346436E-1,-1.802978516E-1
3.142555894E1,-3.462219238E-2,2.059326172E-1,-1.292419434E-2
3.147555894E1,8.815002441E-2,4.930419922E-1,-1.475524902E-2
3.152555894E1,2.005462646E-1,6.359863281E-2,2.784423828E-1
3.157555894E1,3.599853516E-1,-3.511657715E-1,2.870025635E-1
3.162555894E1,1.504669189E-1,-1.000976562E-1,1.348876953E-1
3.167555894E1,3.783111572E-1,-3.456726074E-1,8.297729492E-2
3.172555894E1,-2.850799561E-1,6.078948975E-1,-2.432250977E-1
3.177555894E1,3.398284912E-1,-1.330871582E-1,-1.754150391E-1
3.182555894E1,-5.202636719E-1,2.664031982E-1,-3.186035156E-2
3.187555894E1,-1.622924805E-1,-4.818878174E-1,1.348876953E-1
3.192555894E1,-2.203216553E-1,4.172973633E-1,6.587219238E-2
3.197555894E1,9.486389160E-2,-2.801513672E-2,1.568908691E-1
3.202555894E1,1.779479980E-1,-2.949676514E-1,1.446685791E-1
3.207555894E1,1.785583496E-1,-1.379852295E-1,-3.613281250E-2
3.212555894E1,2.646942139E-1,-2.638092041E-1,-9.783935547E-2
3.217555894E1,1.144104004E-1,1.301879883E-1,-2.572784424E-1
3.222555894E1,-1.739044189E-1,-1.703491211E-1,-1.717529297E-1
3.227555894E1,4.295349121E-2,-2.913055420E-1,-4.289245605E-1
3.232555894E1,-2.416992188E-1,5.303039551E-1,1.880493164E-1
3.237555894E1,-1.427459717E-1,-3.175659180E-1,-3.369140625E-2
3.242555894E1,-3.401184082E-2,7.825927734E-1,2.619628906E-1
3.247555894E1,1.850891113E-2,2.914581299E-1,2.595214844E-1
3.252555894E1,2.524871826E-1,-3.407897949E-1,2.051544189E-1
3.257555894E1,-2.789306641E-2,2.755737305E-2,3.961181641E-2
3.262555894E1,6.433105469E-2,-2.857971191E-1,-7.217407227E-2
3.267555894E1,1.522979736E-1,6.335449219E-1,3.471374512E-2
3.272555894E1,-4.775085449E-1,-2.149505615E-1,-3.244628906E-1
3.277555894E1,2.951049805E-2,5.137634277E-2,1.214599609E-1
3.282555894E1,-6.241149902E-1,-4.886169434E-1,8.175659180E-2
3.287555894E1,-3.339538574E-1,-1.740112305E-1,1.532135010E-1
3.292555894E1,-2.588043213E-1,9.170532227E-2,5.426025391E-2
3.297555894E1,7.165527344E-2,-1.123199463E-1,1.171875000E-1
3.302555894E1,-2.973937988E-2,-1.672973633E-1,-1.576995850E-1
3.307555894E1,-5.111694336E-2,-2.436523438E-1,-1.436462402E-1
3.312555894E1,1.003723145E-1,1.143035889E-1,-7.644653320E-2
3.317555894E1,8.815002441E-2,4.582214355E-1,9.030151367E-2
3.322555894E1,-3.027954102E-1,-6.645507812E-1,-5.639343262E-1
3.327555894E1,3.373870850E-1,3.891906738E-1,1.272583008E-2
3.332555894E1,2.767944336E-2,4.956054688E-2,-1.076049805E-1
3.337555894E1,-4.928588867E-2,3.568115234E-1,2.066040039E-2
3.342555894E1,-6.455993652E-2,5.492401123E-1,7.319641113E-2
3.347555894E1,-4.272460938E-4,-1.758575439E-1,1.807098389E-1
3.352555894E1,3.233337402E-1,-3.132934570E-1,1.458892822E-1
3.357555894E1,1.596221924E-1,-1.208801270E-1,-2.575683594E-2
3.362555894E1,2.188720703E-1,1.045227051E-1,-5.752563477E-2
3.367555894E1,-4.396362305E-1,7.544860840E-1,-1.265411377E-1
3.372555894E1,1.486206055E-1,-9.821929932E-1,-8.866882324E-2
3.377555894E1,-3.046264648E-1,4.832611084E-1,3.224334717E-1
3.382555894E1,-3.394470215E-1,-2.784729004E-1,1.868286133E-1
3.387555894E1,-1.115875244E-1,-7.017517090E-2,4.510498047E-2
3.392555894E1,1.972961426E-2,2.389526367E-2,5.548095703E-2
3.397555894E1,1.468048096E-1,-1.819610596E-1,9.152221680E-2
3.402555894E1,1.681823730E-1,-3.774414062E-1,-1.937866211E-3
3.407555894E1,2.951049805E-2,5.444335938E-2,-5.752563477E-2
3.412555894E1,2.217102051E-2,2.804565430E-1,-1.369323730E-1
3.417555894E1,-4.213104248E-1,1.008605957E-1,-2.890472412E-1
3.422555894E1,-1.012115479E-1,3.739166260E-1,-3.892211914E-1
3.427555894E1,-3.706359863E-2,1.643981934E-1,4.128417969E-1
3.432555894E1,-1.006011963E-1,-1.288146973E-1,1.440582275E-1
3.437555894E1,2.157592773E-2,2.914581299E-1,1.788787842E-1
3.442555894E1,2.231597900E-1,-3.230285645E-2,1.984252930E-1
3.447555894E1,3.270111084E-1,-1.819610596E-1,1.348876953E-1
3.452555894E1,2.958526611E-1,1.790618896E-1,3.227233887E-2
3.457555894E1,3.667144775E-1,-5.234375000E-1,-1.650390625E-1
3.462555894E1,1.492462158E-1,7.606048584E-1,-2.047424316E-1
3.467555894E1,-4.341278076E-1,-1.053665161E0,-5.517120361E-1
3.472555894E1,-7.188415527E-2,2.383117676E-1,-4.704742432E-1
3.477555894E1,-4.683380127E-1,1.179656982E-1,-1.137237549E-1
3.482555894E1,-1.757354736E-1,-3.780517578E-1,3.410339355E-2
3.487555894E1,-5.310058594E-3,1.540222168E-1,9.764099121E-2
3.492555894E1,3.135681152E-1,2.181549072E-1,1.862030029E-1
3.497555894E1,1.809997559E-1,-9.216308594E-2,-1.827392578E-1
3.502555894E1,3.927612305E-2,2.938842773E-2,-1.650390625E-1
3.507555894E1,1.057434082E-2,1.466827393E-1,-2.175598145E-1
3.512555894E1,-2.233886719E-1,2.719116211E-1,-1.277618408E-1
3.517555894E1,-5.147705078E-1,-4.531860352E-1,-7.123718262E-1
3.522555894E1,2.164306641E-1,9.273681641E-1,5.124206543E-1
3.527555894E1,-1.653442383E-1,-2.522125244E-1,3.829040527E-1
3.532555894E1,3.074645996E-1,1.271362305E-1,1.306304932E-1
3.537555894E1,-1.042633057E-1,5.578002930E-1,3.776550293E-2
3.542555894E1,3.086853027E-1,-2.577056885E-1,1.825408936E-1
3.547555894E1,1.504669189E-1,-1.404266357E-1,1.324462891E-1
3.552555894E1,1.180877686E-1,-4.476776123E-1,9.274291992E-2
3.557555894E1,2.213134766E-1,3.537597656E-1,1.251220703E-1
3.562555894E1,-6.167755127E-1,-7.372283936E-1,-1.931304932E-1
3.567555894E1,1.205291748E-1,1.680603027E-1,-2.255096436E-1
3.572555894E1,-3.596038818E-1,3.812561035E-1,2.191925049E-1
3.577555894E1,-2.643127441E-1,-4.440155029E-1,2.387390137E-1
3.582555894E1,-1.054840088E-1,4.039001465E-2,2.870025635E-1
3.587555894E1,1.406860352E-1,-8.911132812E-2,2.705078125E-1
3.592555894E1,1.840667725E-1,-4.634094238E-2,1.746063232E-1
3.597555894E1,1.168670654E-1,-4.104309082E-1,-2.810974121E-1
3.602555894E1,2.078857422E-1,-2.625885010E-1,-2.939300537E-1
3.607555894E1,2.584838867E-2,4.790039062E-1,-2.059631348E-1
3.612555894E1,-5.086517334E-1,-6.278991699E-1,-6.011962891E-1
3.617555894E1,3.257904053E-1,4.637145996E-1,9.063720703E-3
3.622555894E1,-4.854431152E-1,-1.251373291E-1,1.605529785E-1
3.627555894E1,2.378234863E-1,-1.654663086E-1,9.335327148E-2
3.632555894E1,-5.661010742E-2,7.942047119E-1,1.287841797E-1
3.637555894E1,3.331146240E-1,-1.789093018E-1,2.637939453E-1
3.642555894E1,3.648834229E-1,2.877807617E-2,2.405700684E-1
3.647555894E1,2.323150635E-1,-1.068115234E-1,1.923217773E-1
3.652555894E1,4.277954102E-1,9.246826172E-3,9.825134277E-2
3.657555894E1,-2.722473145E-1,6.237792969E-2,-4.774475098E-2
3.662555894E1,2.720336914E-1,-4.397430420E-1,-1.503753662E-1
3.667555894E1,-4.939880371E-1,3.672027588E-1,-7.707214355E-2
3.672555894E1,-4.982757568E-1,-6.205596924E-1,1.245117188E-1
3.677555894E1,-1.586303711E-1,-4.145812988E-2,1.874237061E-1
3.682555894E1,5.455017090E-2,2.395324707E-1,1.819458008E-1
3.687555894E1,1.871185303E-1,-3.548278809E-1,1.611633301E-1
3.692555894E1,1.345825195E-1,-4.598999023E-1,5.120849609E-2
3.697555894E1,1.089324951E-1,-8.238220215E-2,-2.392578125E-2
3.702555894E1,2.645874023E-2,-8.116149902E-2,-1.015014648E-1
3.707555894E1,-5.196533203E-1,-3.529968262E-1,-3.690643311E-1
3.712555894E1,8.753967285E-2,-1.935577393E-1,-5.443878174E-1
3.717555894E1,-2.527008057E-1,1.014724731E0,2.002563477E-1
3.722555894E1,-4.469604492E-1,-4.263153076E-1,1.391754150E-1
3.727555894E1,1.345825195E-1,-2.435302734E-2,1.898803711E-1
3.732555894E1,-2.252197266E-1,6.921844482E-1,1.281738281E-1
3.737555894E1,3.905334473E-1,-4.531860352E-1,6.892395020E-2
3.742555894E1,1.571807861E-1,2.089843750E-1,-2.880859375E-2
3.747555894E1,1.577911377E-1,-3.694915771E-1,-1.680908203E-1
3.752555894E1,2.573699951E-1,8.308563232E-1,-9.355163574E-2
3.757555894E1,-4.799499512E-1,-5.289306641E-1,-4.338226318E-1
3.762555894E1,2.695922852E-1,6.866455078E-4,2.861022949E-2
3.767555894E1,-3.150024414E-1,-9.094238281E-2,3.898620605E-2
3.772555894E1,-2.753143311E-1,-4.513549805E-1,-4.286193848E-2
3.777555894E1,-4.806518555E-2,1.729431152E-1,2.616882324E-2
3.782555894E1,1.358032227E-1,-2.253265381E-1,5.792236328E-2
3.787555894E1,1.461791992E-1,-2.705383301E-1,-5.690002441E-2
3.792555894E1,1.095275879E-1,8.926391602E-2,-6.240844727E-2
3.797555894E1,-2.178955078E-2,-5.490112305E-2,-9.295654297E-2
3.802555894E1,7.897949219E-2,4.301300049E-1,1.019134521E-1
3.807555894E1,-4.084777832E-1,-5.307617188E-1,-4.216003418E-1
3.812555894E1,3.135681152E-1,4.252471924E-1,7.843017578E-3
3.817555894E1,-9.020996094E-2,1.290893555E-2,5.487060547E-2
3.822555894E1,2.286529541E-1,3.287200928E-1,2.173614502E-1
3.827555894E1,-1.019287109E-2,3.788146973E-1,2.066040039E-2
3.832555894E1,3.378295898E-2,-1.465301514E-1,1.862030029E-1
3.837555894E1,2.567443848E-1,-2.008056641E-2,1.849822998E-1
3.842555894E1,-1.647949219E-3,1.051483154E-1,-4.040527344E-2
3.847555894E1,2.640838623E-1,-5.000305176E-2,5.242919922E-2
3.852555894E1,-3.645324707E-2,6.873016357E-1,4.571533203E-2
3.857555894E1,-5.661010742E-2,-4.580688477E-1,-4.154968262E-1
3.862555894E1,-2.447662354E-1,3.391113281E-1,1.629943848E-1
3.867555894E1,-2.508697510E-1,-1.898956299E-1,1.868286133E-1
3.872555894E1,-3.523254395E-2,1.753845215E-1,3.480834961E-1
3.877555894E1,1.174774170E-1,-2.436523438E-1,7.014465332E-2
3.882555894E1,2.048339844E-1,-2.613677979E-1,8.602905273E-2
3.887555894E1,6.433105469E-2,-1.086578369E-1,-1.595306396E-1
3.892555894E1,3.056182861E-1,-4.544067383E-1,-1.381530762E-1
3.897555894E1,-1.146545410E-1,4.398956299E-1,-3.611145020E-1
3.902555894E1,-5.294799805E-2,-1.335144043E-2,-3.158569336E-3
3.907555894E1,-2.209320068E-1,-1.117095947E-1,-6.555633545E-1
3.912555894E1,-1.757354736E-1,6.469879150E-1,-4.103088379E-2
3.917555894E1,-4.745483398E-2,-5.051116943E-1,1.098480225E-1
3.922555894E1,7.960510254E-2,2.853546143E-1,8.453369141E-3
3.927555894E1,3.012084961E-2,3.604888916E-1,1.086273193E-1
3.932555894E1,3.679351807E-1,-5.894165039E-1,2.063751221E-1
3.937555894E1,2.078857422E-1,1.362915039E-1,2.882232666E-1
3.942555894E1,2.207183838E-1,-5.062866211E-2,1.513977051E-1
3.947555894E1,3.789367676E-1,3.409423828E-1,2.680664062E-1
3.952555894E1,-6.289978027E-1,-7.073059082E-1,-4.338226318E-1
3.957555894E1,2.133789062E-1,2.346496582E-1,-3.857421875E-2
3.962555894E1,-7.206268311E-1,1.564636230E-1,-1.210479736E-1
3.967555894E1,-2.447662354E-1,-1.306457520E-1,2.656250000E-1
3.972555894E1,-6.639099121E-2,3.855895996E-2,2.161407471E-1
3.977555894E1,2.268218994E-1,-1.752319336E-1,1.055755615E-1
3.982555894E1,1.070861816E-1,-1.410217285E-1,-3.552246094E-2
3.987555894E1,1.755065918E-1,-3.688812256E-1,-3.232421875E-1
3.992555894E1,7.653808594E-2,1.240692139E-1,-1.754150391E-1
3.997555894E1,7.775878906E-2,3.623199463E-1,-2.560577393E-1
4.002555894E1,-6.332855225E-1,-2.448730469E-1,-5.162811279E-1
4.007555894E1,3.166198730E-1,5.559539795E-1,-2.578735352E-1
4.012555894E1,-3.528900146E-1,1.265106201E-1,3.776550293E-2
4.017555894E1,1.199188232E-1,-2.801513672E-2,7.136535645E-2
4.022555894E1,-4.928588867E-2,4.545593262E-1,7.807922363E-2
4.027555894E1,2.543029785E-1,-1.398010254E-1,1.697235107E-1
4.032555894E1,3.013458252E-1,-2.216644287E-1,2.014923096E-1
4.037555894E1,4.002990723E-1,-6.344604492E-2,2.027130127E-1
4.042555894E1,3.648834229E-1,-1.110992432E-1,1.495513916E-1
4.047555894E1,-1.848907471E-1,1.362915039E-1,5.426025391E-2
4.052555894E1,3.612060547E-1,1.625671387E-1,-1.902770996E-2
4.057555894E1,-5.385894775E-1,4.154663086E-1,-4.530334473E-2
4.062555894E1,-1.958923340E-1,-5.955200195E-1,1.709442139E-1
4.067555894E1,-1.781768799E-1,1.185760498E-1,3.340454102E-1
4.072555894E1,1.345825195E-1,-2.008056641E-2,4.116210938E-1
4.077555894E1,1.803894043E-1,-3.194122314E-1,4.219970703E-1
4.082555894E1,1.022033691E-1,-4.586791992E-1,1.943969727E-2
4.087555894E1,1.510772705E-1,-1.440887451E-1,-8.073425293E-2
4.092555894E1,6.250000000E-2,1.907348633E-3,-2.517700195E-1
4.097555894E1,-4.616241455E-1,-2.919158936E-1,-3.904418945E-1
4.102555894E1,-1.342010498E-1,-1.477508545E-1,-7.728424072E-1
4.107555894E1,-2.869110107E-1,4.991455078E-1,1.489562988E-1
4.112555894E1,-2.942352295E-1,1.124725342E-1,-1.963806152E-2
4.117555894E1,-7.432556152E-2,3.702545166E-1,-1.644134521E-1
4.122555894E1,4.417419434E-2,2.554168701E-1,-5.384826660E-2
4.127555894E1,4.864349365E-1,-1.636352539E-1,1.562805176E-1
4.132555894E1,2.903594971E-1,3.116149902E-1,1.294097900E-1
4.137555894E1,3.080596924E-1,-1.324768066E-1,1.336669922E-1
4.142555894E1,2.567443848E-1,5.816192627E-1,1.935424805E-1
4.147555894E1,-5.446929932E-1,-3.762207031E-1,-1.536560059E-2
4.152555894E1,4.534606934E-1,-4.678497314E-1,2.332458496E-1
4.157555894E1,-2.875213623E-1,3.678131104E-1,2.124786377E-1
4.162555894E1,-2.398681641E-1,1.656188965E-1,2.234802246E-1
4.167555894E1,-3.706359863E-2,-2.375488281E-1,5.364990234E-2
4.172555894E1,1.779479980E-1,5.569458008E-3,1.972045898E-1
4.177555894E1,2.964630127E-1,-2.149505615E-1,5.792236328E-2
4.182555894E1,1.797790527E-1,-2.418212891E-1,-6.790161133E-2
4.187555894E1,-1.629028320E-1,-2.435302734E-2,-3.562316895E-1
4.192555894E1,-2.527008057E-1,3.891906738E-1,-7.278442383E-2
4.197555894E1,-7.609558105E-1,-8.056640625E-1,-7.038269043E-1
4.202555894E1,3.844146729E-1,6.927947998E-1,2.894439697E-1
4.207555894E1,-4.329071045E-1,1.136932373E-1,1.697235107E-1
4.212555894E1,2.084960938E-1,-4.788513184E-1,-5.599975586E-3
4.217555894E1,4.722595215E-2,5.107574463E-1,-5.262756348E-2
4.222555894E1,2.817993164E-1,-1.159820557E-1,5.487060547E-2
4.227555894E1,5.243072510E-1,-1.245422363E-1,1.990356445E-1
4.232555894E1,1.284790039E-1,1.326293945E-1,-2.383270264E-1
4.237555894E1,2.701873779E-1,1.020812988E-1,-6.668090820E-2
4.242555894E1,-5.624084473E-1,-1.282043457E-1,-2.597198486E-1
4.247555894E1,3.538818359E-1,5.107574463E-1,-1.296081543E-1
4.252555894E1,-4.939880371E-1,4.673919678E-1,3.715515137E-2
4.257555894E1,-1.806182861E-1,-4.061431885E-1,2.393493652E-1
4.262555894E1,-2.233886719E-1,3.054962158E-1,1.941528320E-1
4.267555894E1,1.626892090E-1,-2.515869141E-1,1.807098389E-1
4.272555894E1,1.315155029E-1,9.353637695E-2,1.239013672E-1
4.277555894E1,8.204650879E-2,-2.491455078E-1,-1.240997314E-1
4.282555894E1,2.219390869E-1,-3.078002930E-1,-4.957580566E-2
4.287555894E1,-2.607727051E-2,4.466094971E-1,-2.957611084E-1
4.292555894E1,-6.235046387E-1,-7.421264648E-1,-5.431671143E-1
4.297555894E1,1.248168945E-1,4.258422852E-1,-4.716949463E-1
4.302555894E1,-3.907623291E-1,2.132720947E-1,-4.379272461E-3
4.307555894E1,6.494140625E-2,2.145385742E-2,-5.628967285E-2
4.312555894E1,-2.551422119E-1,6.952362061E-1,-1.424255371E-1
4.317555894E1,3.141784668E-1,-3.102416992E-1,1.379547119E-1
4.322555894E1,4.302520752E-1,1.216278076E-1,3.316040039E-1
4.327555894E1,3.673248291E-1,-1.471405029E-1,2.815093994E-1
4.332555894E1,3.819732666E-1,-4.666290283E-1,3.242797852E-1
4.337555894E1,2.890014648E-2,3.091735840E-1,-5.079650879E-2
4.342555894E1,-4.249725342E-1,-6.798095703E-1,-2.102355957E-1
4.347555894E1,-3.021850586E-1,3.959197998E-1,-1.986236572E-1
4.352555894E1,-4.035797119E-1,-2.155609131E-1,-7.829284668E-2
4.357555894E1,-2.032165527E-1,1.815032959E-1,1.196289062E-1
4.362555894E1,-5.310058594E-3,-4.267883301E-2,1.074066162E-1
4.367555894E1,3.500366211E-2,-2.314453125E-1,3.896331787E-1
4.372555894E1,-1.995849609E-2,-4.928894043E-1,-6.195068359E-3
4.377555894E1,4.051208496E-2,-3.346710205E-1,-1.601409912E-1
4.382555894E1,2.091064453E-1,1.014709473E-1,-1.387634277E-1
4.387555894E1,6.738281250E-2,2.658081055E-1,-1.228790283E-1
4.392555894E1,-1.433563232E-1,-2.436523438E-1,-5.242156982E-1
4.397555894E1,-2.233886719E-1,6.182708740E-1,1.513977051E-1
4.402555894E1,-4.206848145E-1,-8.013763428E-1,-8.744812012E-2
4.407555894E1,1.388549805E-1,7.887268066E-2,2.747802734E-1
4.412555894E1,3.073120117E-2,5.504608154E-1,1.214599609E-1
4.417555894E1,3.178405762E-1,-3.609466553E-1,1.935424805E-1
4.422555894E1,2.537078857E-1,3.855895996E-2,7.807922363E-2
4.427555894E1,1.871185303E-1,-7.383728027E-2,2.497406006E-1
4.432555894E1,1.046447754E-1,5.620727539E-1,1.257324219E-1
4.437555894E1,-3.473968506E-1,-7.763366699E-1,-2.652130127E-1
4.442555894E1,-3.340148926E-2,5.669555664E-1,1.685028076E-1
4.447555894E1,-7.432250977E-1,-1.825714111E-1,2.454681396E-1
4.452555894E1,-5.538940430E-2,-4.043121338E-1,2.314147949E-1
4.457555894E1,-3.157043457E-2,4.056854248E-1,3.346557617E-1
4.462555894E1,2.481994629E-1,1.045227051E-1,2.161407471E-1
4.467555894E1,2.249908447E-1,-7.383728027E-2,6.770324707E-2
4.472555894E1,2.897338867E-1,-2.167816162E-1,2.349853516E-3
4.477555894E1,1.284790039E-1,1.869964600E-1,-1.253204346E-1
4.482555894E1,-4.318237305E-2,1.582794189E-1,5.187988281E-4
4.487555894E1,-1.115875244E-1,-1.051223755E0,-5.987396240E-1
4.492555894E1,3.805541992E-2,1.075210571E0,1.367340088E-1
4.497555894E1,-2.392578125E-1,-3.694915771E-1,6.343078613E-2
4.502555894E1,-1.507568359E-2,3.946990967E-1,1.239013672E-1
4.507555894E1,-9.509277344E-2,3.562164307E-1,-4.957580566E-2
4.512555894E1,4.186248779E-1,-4.598999023E-1,2.045288086E-1
4.517555894E1,2.091064453E-1,5.688476562E-2,-3.158569336E-3
4.522555894E1,2.585906982E-1,5.383300781E-2,8.602905273E-2
4.527555894E1,2.317047119E-1,5.339660645E-1,6.648254395E-2
4.532555894E1,-5.367584229E-1,-7.176818848E-1,-6.546020508E-2
4.537555894E1,3.845214844E-3,9.231567383E-2,1.733856201E-1
4.542555894E1,-2.661437988E-1,3.794860840E-2,2.631835938E-1
4.547555894E1,-2.710266113E-1,-1.141510010E-1,8.541870117E-2
4.552555894E1,-5.599975586E-2,-5.209960938E-1,-6.179809570E-2
4.557555894E1,2.915802002E-1,1.900482178E-1,2.216339111E-1
4.562555894E1,2.268218994E-1,-4.806518555E-3,-1.045532227E-1
4.567555894E1,4.064178467E-1,-1.660766602E-1,-3.063964844E-2
4.572555894E1,2.457580566E-1,-8.666992188E-2,-2.151184082E-1
4.577555894E1,3.092803955E-1,1.448364258E-1,1.028442383E-2
4.582555894E1,-2.319335938E-1,-4.092102051E-1,-3.409576416E-1
4.587555894E1,-4.272460938E-4,3.519287109E-1,1.593322754E-1
4.592555894E1,-4.255676270E-2,-3.639984131E-1,-4.347229004E-2
4.597555894E1,9.353637695E-3,4.991455078E-1,2.066040039E-2
4.602555894E1,-1.019287109E-2,3.849182129E-1,7.843017578E-3
4.607555894E1,3.355560303E-1,-1.831817627E-1,1.220703125E-1
4.612555894E1,2.964630127E-1,2.621307373E-1,1.544342041E-1
4.617555894E1,2.591857910E-1,-1.233215332E-1,-3.857421875E-2
4.622555894E1,9.364318848E-2,2.340393066E-1,-6.820678711E-3
4.627555894E1,-5.471343994E-1,2.242584229E-1,-9.233093262E-2
4.632555894E1,-1.506805420E-1,3.427124023E-2,-1.900787354E-1
4.637555894E1,-4.426727295E-1,-1.630249023E-1,8.053588867E-2
4.642555894E1,-4.591827393E-1,2.532958984E-3,-1.902770996E-2
4.647555894E1,-1.103668213E-1,-1.929473877E-1,1.721649170E-1
4.652555894E1,9.364318848E-2,-4.196166992E-3,5.670166016E-2
4.657555894E1,2.646942139E-1,-1.153564453E-2,1.943969727E-2
4.662555894E1,3.184509277E-1,-6.834411621E-2,-1.021118164E-1
4.667555894E1,3.691558838E-1,-2.923583984E-2,-1.894683838E-1
4.672555894E1,1.028137207E-1,1.289672852E-1,-1.522064209E-1
4.677555894E1,-6.815338135E-1,-6.657714844E-1,-5.706481934E-1
4.682555894E1,1.565704346E-1,3.488769531E-1,-9.233093262E-2
4.687555894E1,-5.465393066E-1,-2.766418457E-1,-8.195495605E-2
4.692555894E1,1.131896973E-1,1.094207764E-1,2.314147949E-1
4.697555894E1,-4.806518555E-2,4.337921143E-1,1.037445068E-1
4.702555894E1,2.781372070E-1,-3.212280273E-1,1.214599609E-1
4.707555894E1,3.593750000E-1,1.075897217E-1,2.491302490E-1
4.712555894E1,1.767272949E-1,1.326293945E-1,7.843017578E-3
4.717555894E1,2.072753906E-1,-2.271575928E-1,1.135253906E-1
4.722555894E1,-1.659698486E-1,9.353179932E-1,8.419799805E-2
4.727555894E1,-4.200897217E-1,-4.763946533E-1,-2.566528320E-1
4.732555894E1,-3.339538574E-1,7.826232910E-2,-2.941894531E-2
4.737555894E1,-3.064575195E-1,-4.336395264E-1,-3.918457031E-2
4.742555894E1,-2.117767334E-1,-1.666870117E-1,-1.442718506E-1
4.747555894E1,1.728820801E-2,2.218170166E-1,1.335144043E-2
4.752555894E1,3.453369141E-1,-1.245422363E-1,3.288269043E-2
4.757555894E1,9.304809570E-2,-1.825714111E-1,-9.599304199E-2
4.762555894E1,9.304809570E-2,-3.670501709E-1,-2.572784424E-1
4.767555894E1,-3.157043457E-2,8.010864258E-3,-2.419891357E-1
4.772555894E1,-2.520904541E-1,2.963409424E-1,-1.503753662E-1
4.777555894E1,-1.714477539E-1,-2.595367432E-1,-5.541534424E-1
4.782555894E1,1.118469238E-2,3.018341064E-1,6.648254395E-2
4.787555894E1,-2.319335938E-1,-5.856323242E-2,-8.744812012E-2
4.792555894E1,-1.396942139E-1,-1.519775391E-2,-1.247100830E-1
4.797555894E1,6.921386719E-2,9.246826172E-3,2.222595215E-1
4.802555894E1,2.744750977E-1,-2.496337891E-2,3.334350586E-1
4.807555894E1,3.593750000E-1,8.497619629E-2,3.358764648E-1
4.812555894E1,2.543029785E-1,-9.216308594E-2,-4.040527344E-2
4.817555894E1,2.323150635E-1,5.907897949E-1,8.602905273E-2
4.822555894E1,-5.013275146E-1,-4.159240723E-1,-2.194061279E-1
4.827555894E1,1.327514648E-1,1.851654053E-1,-1.302032471E-1
4.832555894E1,-6.210327148E-2,-3.151245117E-1,6.465148926E-2
4.837555894E1,-1.928405762E-1,5.749511719E-2,2.259216309E-1
4.842555894E1,3.845214844E-3,-3.414001465E-1,7.136535645E-2
4.847555894E1,2.909545898E-1,-9.826660156E-2,-4.040527344E-2
4.852555894E1,7.594299316E-2,2.395324707E-1,5.670166016E-2
4.857555894E1,2.940216064E-1,-1.789093018E-1,-7.585144043E-2
4.862555894E1,9.548950195E-2,-1.569061279E-1,-1.475524902E-2
4.867555894E1,1.394653320E-1,2.560272217E-1,-1.296081543E-1
4.872555894E1,-3.608245850E-1,-3.750000000E-1,-2.236785889E-1
4.877555894E1,-5.905151367E-2,4.838867188E-1,-2.817077637E-1
4.882555894E1,-3.388366699E-1,-3.346710205E-1,2.676391602E-2
4.887555894E1,-2.038421631E-1,9.658813477E-2,1.091003418E-2
4.892555894E1,-2.912902832E-2,3.287200928E-1,4.937744141E-2
4.897555894E1,3.001251221E-1,3.855895996E-2,2.020874023E-1
4.902555894E1,3.880920410E-1,9.109497070E-2,2.772216797E-1
4.907555894E1,3.587646484E-1,1.057434082E-1,1.800994873E-1
4.912555894E1,2.921752930E-1,-6.100463867E-2,1.272583008E-2
4.917555894E1,8.132934570E-3,7.172393799E-1,9.335327148E-2
4.922555894E1,6.912231445E-3,-6.138458252E-1,1.335144043E-2
4.927555894E1,-3.950347900E-1,4.227905273E-1,1.153411865E-1
4.932555894E1,-1.378631592E-1,-3.951416016E-1,2.442474365E-1
4.937555894E1,-1.793975830E-1,2.389221191E-1,2.466888428E-1
4.942555894E1,6.616210938E-2,2.737426758E-1,2.198028564E-1
4.947555894E1,2.921752930E-1,-8.116149902E-2,2.399749756E-1
4.952555894E1,1.150360107E-1,-2.198333740E-1,6.037902832E-2
4.957555894E1,3.306732178E-1,-2.674713135E-1,2.006530762E-2
4.962555894E1,4.112243652E-2,6.237792969E-2,-1.754150391E-1
4.967555894E1,-2.789764404E-1,-2.711486816E-1,-1.247100830E-1
4.972555894E1,-1.415252686E-1,-4.281311035E-1,-3.715057373E-1
4.977555894E1,-8.837890625E-2,6.866912842E-1,3.163299561E-1
4.982555894E1,-5.920410156E-3,-1.416473389E-1,-3.247070312E-2
4.987555894E1,-6.530761719E-3,6.640930176E-1,-4.652404785E-2
4.992555894E1,7.043457031E-2,1.448364258E-1,-8.041381836E-3
4.997555894E1,2.366027832E-1,-1.654663086E-1,1.513977051E-1
5.002555894E1,2.695922852E-1,6.420898438E-2,5.792236328E-2
5.007555894E1,3.422698975E-1,3.123474121E-2,1.403961182E-1
5.012555894E1,2.219390869E-1,1.405792236E-1,7.746887207E-2
5.017555894E1,-5.599670410E-1,-1.892852783E-1,-1.088409424E-1
5.022555894E1,7.522583008E-3,3.867492676E-1,-1.668548584E-1
5.027555894E1,-4.548950195E-1,3.128051758E-3,1.654357910E-1
5.032555894E1,-2.301025391E-1,-9.826660156E-2,1.391754150E-1
5.037555894E1,-2.887420654E-1,2.334289551E-1,1.202392578E-1
5.042555894E1,1.321411133E-1,-1.221008301E-1,1.000823975E-1
5.047555894E1,4.661560059E-2,-2.699127197E-1,2.432250977E-2
5.052555894E1,-5.722045898E-2,-1.685180664E-1,-3.922729492E-1
5.057555894E1,-1.019287109E-2,-1.763916016E-2,-1.961822510E-1
5.062555894E1,-1.219787598E-1,-2.679443359E-2,-2.230682373E-1
5.067555894E1,-5.825653076E-1,-6.211700439E-1,-4.270935059E-1
5.072555894E1,-2.363586426E-2,1.839447021E-1,-3.831024170E-1
5.077555894E1,-4.164123535E-1,-1.055908203E-1,-1.051635742E-1
5.082555894E1,5.639648438E-2,2.816772461E-2,-1.851959229E-1
5.087555894E1,4.112243652E-2,7.703704834E-1,1.312255859E-1
5.092555894E1,2.970733643E-1,9.292602539E-2,8.847045898E-2
5.097555894E1,3.239440918E-1,-1.941833496E-1,1.709442139E-1
5.102555894E1,2.323150635E-1,1.821136475E-1,1.000823975E-1
5.107555894E1,2.708129883E-1,-2.137298584E-1,8.847045898E-2
5.112555894E1,-7.127380371E-2,9.200439453E-1,1.978149414E-1
5.117555894E1,-2.777557373E-1,-7.384643555E-1,-4.796295166E-1
5.122555894E1,-7.432556152E-2,3.464355469E-1,1.226806641E-1
5.127555894E1,-3.125610352E-1,-2.393798828E-1,-7.522583008E-2
5.132555894E1,-1.121978760E-1,-5.340576172E-4,1.709442139E-1
5.137555894E1,3.744506836E-2,1.106414795E-1,9.274291992E-2
5.142555894E1,1.907806396E-1,-2.344970703E-1,2.075958252E-1
5.147555894E1,3.317260742E-2,-6.126251221E-1,1.028442383E-2
5.152555894E1,1.083068848E-1,-3.670501709E-1,-1.719665527E-2
5.157555894E1,-2.545318604E-1,2.902374268E-1,-3.299713135E-1
5.162555894E1,2.523803711E-2,2.004394531E-1,7.843017578E-3
5.167555894E1,-4.078674316E-1,-5.985717773E-1,-7.288665771E-1
5.172555894E1,2.158203125E-1,3.659820557E-1,2.979888916E-1
5.177555894E1,-3.815917969E-1,-2.302246094E-1,-9.721374512E-2
5.182555894E1,7.043457031E-2,2.291412354E-1,1.923217773E-1
5.187555894E1,1.327514648E-1,4.490509033E-1,2.821197510E-1
5.192555894E1,4.473419189E-1,-2.729797363E-1,2.515716553E-1
5.197555894E1,2.390441895E-1,1.412963867E-2,2.198028564E-1
5.202555894E1,1.742858887E-1,1.075897217E-1,4.937744141E-2
5.207555894E1,1.498565674E-1,3.415527344E-1,7.992553711E-2
5.212555894E1,-5.068206787E-1,2.532958984E-3,-3.672332764E-1
5.217555894E1,1.113739014E-1,-5.490112305E-2,8.236694336E-2
5.222555894E1,-3.858795166E-1,-5.429077148E-2,1.239013672E-1
5.227555894E1,-2.270507812E-1,1.112518311E-1,1.269531250E-1
5.232555894E1,-9.326171875E-2,4.227905273E-1,1.489562988E-1
5.237555894E1,2.964630127E-1,-1.153717041E-1,1.739959717E-1
5.242555894E1,1.315155029E-1,-2.801513672E-2,-1.137237549E-1
5.247555894E1,8.387756348E-2,-3.365173340E-1,2.006530762E-2
5.252555894E1,1.767272949E-1,-1.618041992E-1,-4.469299316E-2
5.257555894E1,1.125946045E-1,2.822875977E-1,1.239013672E-1
5.262555894E1,-4.121398926E-1,-6.150665283E-1,-6.909790039E-1
5.267555894E1,-9.204101562E-2,1.979980469E-1,-8.866882324E-2
5.272555894E1,-5.233154297E-1,-5.490112305E-2,2.554321289E-2
5.277555894E1,-3.462219238E-2,2.395324707E-1,1.367340088E-1
5.282555894E1,-1.818389893E-1,4.001922607E-1,-7.431030273E-3
5.287555894E1,1.577911377E-1,-1.269836426E-1,1.355133057E-1
5.292555894E1,2.933959961E-1,3.794860840E-2,1.000823975E-1
5.297555894E1,1.651306152E-1,-1.214752197E-1,1.550598145E-1
5.302555894E1,3.025665283E-1,-5.184936523E-2,1.568908691E-1
5.307555894E1,-5.055999756E-1,5.322265625E-2,-9.295654297E-2
5.312555894E1,3.844146729E-1,1.130828857E-1,4.632568359E-2
5.317555894E1,-3.137817383E-1,-5.490112305E-2,7.014465332E-2
5.322555894E1,-2.380371094E-1,-6.730957031E-1,-6.240844727E-2
5.327555894E1,-2.038421631E-1,7.629394531E-5,2.432250977E-2
5.332555894E1,2.775268555E-1,6.195068359E-3,5.487060547E-2
5.337555894E1,1.449584961E-1,-2.252197266E-2,-7.951354980E-2
5.342555894E1,1.706237793E-1,-3.597259521E-1,-1.760253906E-1
5.347555894E1,6.372070312E-2,-1.911163330E-1,-1.522064209E-1
5.352555894E1,1.803894043E-1,2.767944336E-1,-1.943511963E-1
5.357555894E1,-5.880737305E-1,-1.825714111E-1,-4.832916260E-1
5.362555894E1,5.821228027E-2,3.128051758E-3,-3.006439209E-1
5.367555894E1,-2.600250244E-1,6.298828125E-2,7.319641113E-2
5.372555894E1,-1.971130371E-1,1.901245117E-2,-1.536560059E-2
5.377555894E1,1.480255127E-1,1.168823242E-2,3.532409668E-2
5.382555894E1,2.170410156E-1,2.297515869E-1,1.080169678E-1
5.387555894E1,3.856506348E-1,6.195068359E-3,2.259216309E-1
5.392555894E1,2.616424561E-1,1.051483154E-1,1.422271729E-1
5.397555894E1,3.807525635E-1,-3.167724609E-2,3.044128418E-2
5.402555894E1,-9.938049316E-2,7.624359131E-1,7.232666016E-3
5.407555894E1,1.260375977E-1,-3.395690918E-1,-1.705322266E-1
5.412555894E1,-4.341278076E-1,3.873596191E-1,1.941528320E-1
5.417555894E1,-3.596038818E-1,-4.195861816E-1,1.819458008E-1
5.422555894E1,-1.494598389E-1,1.106414795E-1,2.601165771E-1
5.427555894E1,2.951049805E-2,1.399536133E-1,3.166198730E-2
5.432555894E1,1.913909912E-1,1.962280273E-2,-9.872436523E-3
5.437555894E1,-7.751464844E-3,5.383300781E-2,-3.098144531E-1
5.442555894E1,1.972961426E-2,-2.008972168E-1,-1.497497559E-1
5.447555894E1,2.462768555E-2,-3.078002930E-1,-2.560577393E-1
5.452555894E1,-5.923461914E-1,-4.267883301E-2,-1.552581787E-1
5.457555894E1,7.350158691E-2,-3.560638428E-1,-4.875640869E-1
5.462555894E1,-2.191009521E-1,3.665924072E-1,8.297729492E-2
5.467555894E1,-2.160491943E-1,-2.351074219E-1,-1.198272705E-1
5.472555894E1,2.549285889E-1,3.568115234E-1,1.239013672E-1
5.477555894E1,6.982421875E-2,2.438049316E-1,9.886169434E-2
5.482555894E1,4.265747070E-1,-3.890380859E-1,6.097412109E-2
5.487555894E1,2.720336914E-1,-1.483612061E-1,7.441711426E-2
5.492555894E1,2.585906982E-1,-2.100524902E-1,-1.399841309E-1
5.497555894E1,1.803894043E-1,7.123413086E-1,-1.344909668E-1
5.502555894E1,-4.939880371E-1,-4.366912842E-1,-2.340545654E-1
5.507555894E1,-9.754943848E-2,4.722747803E-1,-9.872436523E-3
5.512555894E1,-3.290710449E-1,-6.321716309E-1,2.570800781E-1
5.517555894E1,-5.599975586E-2,1.796722412E-1,3.425903320E-1
5.522555894E1,5.210876465E-2,4.423522949E-1,2.228698730E-1
5.527555894E1,3.630523682E-1,-5.716857910E-1,2.075958252E-1
5.532555894E1,-9.387207031E-2,-1.947937012E-1,-1.760253906E-1
5.537555894E1,9.304809570E-2,-1.648559570E-1,-2.743835449E-1
5.542555894E1,-9.082031250E-2,1.020812988E-1,-3.647766113E-1
5.547555894E1,8.265686035E-2,-3.535461426E-2,-1.748046875E-1
5.552555894E1,-7.646179199E-1,-3.982086182E-1,-8.217163086E-1
5.557555894E1,2.139892578E-1,6.976928711E-1,5.731201172E-2
5.562555894E1,-2.588043213E-1,3.123474121E-2,1.825408936E-1
5.567555894E1,2.524871826E-1,-5.062866211E-2,-2.453613281E-2
5.572555894E1,-4.989624023E-2,5.229797363E-1,1.135253906E-1
5.577555894E1,3.526611328E-1,-4.067687988E-1,1.672821045E-1
5.582555894E1,2.677459717E-1,7.765197754E-2,1.862030029E-1
5.587555894E1,8.876037598E-2,-2.618408203E-2,1.685028076E-1
5.592555894E1,1.669616699E-1,2.206420898E-2,1.043548584E-1
5.597555894E1,-3.938140869E-1,5.944519043E-1,-2.024841309E-2
5.602555894E1,9.671020508E-2,-3.762207031E-1,-4.252624512E-1
5.607555894E1,-4.830017090E-1,2.829132080E-1,3.291625977E-1
5.612555894E1,-2.294921875E-1,-3.291778564E-1,3.780212402E-1
5.617555894E1,-2.667236328E-2,4.166870117E-1,3.914642334E-1
5.622555894E1,1.920013428E-1,-2.974243164E-1,4.458312988E-1
5.627555894E1,3.373870850E-1,-3.792724609E-1,3.639678955E-1
5.632555894E1,1.278533936E-1,-2.803192139E-1,-2.330017090E-2
5.637555894E1,3.251647949E-1,-1.947937012E-1,-8.683776855E-2
5.642555894E1,4.661560059E-2,1.784515381E-1,-3.006439209E-1
5.647555894E1,-8.672332764E-1,-6.517181396E-1,-5.211639404E-1
5.652555894E1,3.325042725E-1,1.998291016E-1,-2.737579346E-1
5.657555894E1,-2.765350342E-1,9.518127441E-1,6.266479492E-1
5.662555894E1,-1.836700439E-1,-6.840972900E-1,1.220703125E-1
5.667555894E1,6.738281250E-2,6.329345703E-1,2.432250977E-2
5.672555894E1,5.821228027E-2,3.867492676E-1,2.711181641E-1
5.677555894E1,5.285949707E-1,-6.132354736E-1,3.835144043E-1
5.682555894E1,1.571807861E-1,2.847290039E-1,1.654357910E-1
5.687555894E1,1.913909912E-1,-6.529388428E-1,1.929321289E-1
5.692555894E1,7.775878906E-2,1.294509888E0,1.312255859E-1
5.697555894E1,-7.407836914E-1,-8.270416260E-1,-1.192169189E-1
5.702555894E1,3.683471680E-2,-1.581268311E-1,1.611633301E-1
5.707555894E1,-6.797027588E-1,1.088104248E-1,9.152221680E-2
5.712555894E1,4.844665527E-2,-4.476776123E-1,2.228698730E-1
5.717555894E1,1.956634521E-1,3.953094482E-1,3.480834961E-1
5.722555894E1,3.325042725E-1,-2.149505615E-1,2.692871094E-1
5.727555894E1,2.103271484E-1,-2.265472412E-1,9.764099121E-2
5.732555894E1,1.809997559E-1,-9.704589844E-2,2.188110352E-2
5.737555894E1,5.027770996E-2,6.481933594E-2,-2.340545654E-1
5.742555894E1,5.271911621E-2,1.900482178E-1,-3.491210938E-2
5.747555894E1,-2.844696045E-1,-1.709594727E-1,-7.557373047E-1
5.752555894E1,-8.471679688E-2,5.162506104E-1,9.701538086E-2
5.757555894E1,-4.054260254E-1,-2.137298584E-1,-6.912231445E-2
5.762555894E1,1.926116943E-1,2.621307373E-1,9.701538086E-2
5.767555894E1,1.229705811E-1,3.525390625E-1,2.527923584E-1
5.772555894E1,4.265747070E-1,-3.487243652E-1,2.051544189E-1
5.777555894E1,2.219390869E-1,3.177185059E-1,2.405700684E-1
5.782555894E1,2.665252686E-1,-3.517761230E-1,2.051544189E-1
5.787555894E1,4.271850586E-1,4.881591797E-1,1.232910156E-1
5.792555894E1,-5.801239014E-1,-9.467620850E-1,-4.469299316E-2
5.797555894E1,3.661041260E-1,3.531494141E-1,1.028442383E-2
5.802555894E1,-5.697479248E-1,1.149139404E-1,6.526184082E-2
5.807555894E1,-1.360168457E-1,-3.200073242E-1,2.503509521E-1
5.812555894E1,-4.745483398E-2,3.879699707E-1,2.277526855E-1
5.817555894E1,2.775268555E-1,-2.290039062E-1,3.505401611E-1
5.822555894E1,1.492462158E-1,-1.905059814E-1,7.931518555E-2
5.827555894E1,-1.457977295E-1,-1.349182129E-1,-9.599304199E-2
5.832555894E1,1.694030762E-1,-6.893920898E-2,-1.902770996E-2
5.837555894E1,-1.647949219E-3,4.179077148E-1,-1.082153320E-1
5.842555894E1,-8.202056885E-1,-9.705963135E-1,-7.251892090E-1
5.847555894E1,5.004882812E-1,6.989135742E-1,-1.357116699E-1
5.852555894E1,-5.953979492E-1,3.610992432E-1,7.232666016E-3
5.857555894E1,1.351928711E-1,-3.957672119E-1,9.091186523E-2
5.862555894E1,-5.310058594E-3,6.365966797E-1,7.441711426E-2
5.867555894E1,3.447113037E-1,-2.424316406E-1,2.925109863E-1
5.872555894E1,3.789367676E-1,1.533966064E-1,2.283630371E-1
5.877555894E1,1.284790039E-1,1.393585205E-1,1.226806641E-1
5.882555894E1,1.296997070E-1,-4.201965332E-1,1.465148926E-1
5.887555894E1,-2.111663818E-1,7.465515137E-1,1.037445068E-1
5.892555894E1,-3.516693115E-1,-9.076690674E-1,-4.591369629E-2
5.897555894E1,-1.286926270E-1,2.975616455E-1,3.279418945E-1
5.902555894E1,-3.852691650E-1,-3.194122314E-1,1.324462891E-1
5.907555894E1,9.364318848E-2,4.001922607E-1,2.851715088E-1
5.912555894E1,1.235809326E-1,1.962280273E-2,2.216339111E-1
5.917555894E1,4.094696045E-1,-4.489135742E-1,1.697235107E-1
5.922555894E1,-1.189117432E-1,3.733825684E-2,-1.412048340E-1
5.927555894E1,3.673248291E-1,-9.479827881E-1,-1.186065674E-1
5.932555894E1,2.035522461E-2,3.213806152E-1,-1.961822510E-1
5.937555894E1,-4.451293945E-1,-4.568481445E-1,-3.733367920E-1
5.942555894E1,1.541290283E-1,1.949310303E-1,-3.513488770E-1
5.947555894E1,-2.294921875E-1,5.467987061E-1,3.993988037E-1
5.952555894E1,4.470825195E-3,-2.351074219E-1,2.680664062E-1
5.957555894E1,-2.545166016E-2,7.715911865E-1,3.413696289E-1
5.962555894E1,4.417419434E-2,-3.167724609E-2,2.448577881E-1
5.967555894E1,3.544921875E-1,-4.201965332E-1,2.747802734E-1
5.972555894E1,5.761718750E-2,4.270629883E-1,1.251220703E-1
5.977555894E1,2.219390869E-1,-4.977722168E-1,-6.729125977E-2
5.982555894E1,3.838195801E-1,8.198547363E-1,-1.540374756E-1
5.987555894E1,-4.781188965E-1,-6.541595459E-1,-3.299713135E-1
5.992555894E1,1.620635986E-1,4.722747803E-1,-1.497497559E-1
5.997555894E1,-4.029846191E-1,-1.605834961E-1,-1.292419434E-2
6.002555894E1,-1.244201660E-1,-1.599731445E-1,7.258605957E-2
6.007555894E1,-8.972167969E-3,4.282836914E-1,1.385650635E-1
6.012555894E1,3.037872314E-1,-1.599731445E-1,3.236541748E-1
6.017555894E1,2.371978760E-1,-3.291778564E-1,1.208496094E-1
6.022555894E1,1.119689941E-1,-3.401794434E-1,5.915832520E-2
6.027555894E1,1.095275879E-1,4.222106934E-2,-2.792663574E-1
6.032555894E1,-1.897888184E-1,-2.290039062E-1,-1.051635742E-1
6.037555894E1,-5.624084473E-1,-3.658294678E-1,-4.942932129E-1
6.042555894E1,-8.361816406E-3,7.905426025E-1,2.583007812E-1
6.047555894E1,-4.451293945E-1,-6.443939209E-1,2.922058105E-2
6.052555894E1,2.279663086E-2,6.805877686E-1,-1.613616943E-1
6.057555894E1,-1.080322266E-2,3.378906250E-1,1.746063232E-1
6.062555894E1,4.613952637E-1,-2.338867188E-1,2.570800781E-1
6.067555894E1,2.537078857E-1,1.277313232E-1,3.389282227E-1
6.072555894E1,3.166198730E-1,-4.489135742E-1,3.654479980E-2
6.077555894E1,1.028137207E-1,2.529754639E-1,-4.530334473E-2
6.082555894E1,-6.345062256E-1,-5.539855957E-1,-2.148437500E-2
6.087555894E1,4.607849121E-1,-1.550903320E-1,-1.326446533E-1
6.092555894E1,-3.327331543E-1,3.757629395E-1,2.185821533E-1
6.097555894E1,-1.824493408E-1,-2.607574463E-1,1.599426270E-1
6.102555894E1,-4.272460938E-4,3.623199463E-1,1.526184082E-1
6.107555894E1,1.321411133E-1,-2.821350098E-1,1.294097900E-1
6.112555894E1,2.188720703E-1,-1.685180664E-1,-1.312255859E-3
6.117555894E1,8.692932129E-2,-4.634094238E-2,-2.584991455E-1
6.122555894E1,2.298736572E-1,-1.208801270E-1,-3.433990479E-1
6.127555894E1,-6.530761719E-3,1.973876953E-1,-4.845123291E-1
6.132555894E1,-9.356536865E-1,-4.238739014E-1,-8.131713867E-1
6.137555894E1,4.064178467E-1,5.187072754E-1,4.815673828E-2
6.142555894E1,-1.732940674E-1,3.916931152E-2,1.721649170E-1
6.147555894E1,2.225494385E-1,-6.767578125E-1,-6.118774414E-2
6.152555894E1,4.722595215E-2,8.662872314E-1,6.526184082E-2
6.157555894E1,2.671356201E-1,-2.374267578E-2,2.521820068E-1
6.162555894E1,4.235229492E-1,-9.078979492E-3,2.424163818E-1
6.167555894E1,9.671020508E-2,1.637878418E-1,2.442474365E-1
6.172555894E1,2.433166504E-1,-2.862548828E-2,1.519927979E-1
6.177555894E1,-3.186798096E-1,4.325714111E-1,1.911010742E-1
6.182555894E1,8.509826660E-2,-5.081634521E-1,-5.079650879E-2
6.187555894E1,-1.708526611E-1,4.276885986E-1,4.262847900E-1
6.192555894E1,-3.883209229E-1,-6.504974365E-1,3.004455566E-1
6.197555894E1,3.500366211E-2,-2.705383301E-1,1.367340088E-1
6.202555894E1,3.805541992E-2,5.400848389E-1,3.768005371E-1
6.207555894E1,3.648834229E-1,-2.589263916E-1,2.051544189E-1
6.212555894E1,1.577911377E-1,-1.049957275E-1,5.303955078E-2
6.217555894E1,3.007354736E-1,-2.277679443E-1,-8.927917480E-2
6.222555894E1,1.687927246E-1,5.749511719E-2,-1.528167725E-1
6.227555894E1,-6.351013184E-1,-7.268524170E-1,-4.674072266E-1
6.232555894E1,1.706237793E-1,5.889434814E-1,-2.432250977E-1
6.237555894E1,-3.577728271E-1,3.916320801E-1,2.075958252E-1
6.242555894E1,-1.836700439E-1,-1.373596191E-1,-2.514648438E-2
6.247555894E1,6.372070312E-2,4.295043945E-1,2.088165283E-1
6.252555894E1,3.386077881E-1,1.112518311E-1,1.965942383E-1
6.257555894E1,4.913330078E-1,1.033020020E-1,2.870025635E-1
6.262555894E1,3.551025391E-1,3.403320312E-1,9.825134277E-2
6.267555894E1,3.355560303E-1,-2.679443359E-2,6.037902832E-2
6.272555894E1,5.883789062E-2,7.428894043E-1,2.314147949E-1
6.277555894E1,-3.272247314E-1,-1.130035400E0,-2.823181152E-1
6.282555894E1,-2.649230957E-1,5.602416992E-1,1.245117188E-1
6.287555894E1,-4.213104248E-1,-5.179290771E-1,2.448577881E-1
6.292555894E1,-2.691955566E-1,7.276916504E-2,2.570800781E-1
6.297555894E1,1.362609863E-2,3.299407959E-1,2.149200439E-1
6.302555894E1,2.005462646E-1,-2.711486816E-1,2.381286621E-1
6.307555894E1,9.242248535E-2,-1.397705078E-2,3.961181641E-2
6.312555894E1,2.706909180E-2,-2.216644287E-1,-9.906005859E-2
6.317555894E1,4.112243652E-2,-1.636352539E-1,-1.186065674E-1
6.322555894E1,-1.403045654E-1,4.447937012E-1,-1.045532227E-1
6.327555894E1,-4.164123535E-1,-5.350341797E-1,-4.949035645E-1
6.332555894E1,-9.692382812E-2,4.508972168E-1,1.611633301E-1
6.337555894E1,-2.588043213E-1,-7.433471680E-1,-5.934143066E-2
6.342555894E1,2.176513672E-1,9.206542969E-1,3.670349121E-1
6.347555894E1,-3.584289551E-2,4.753265381E-1,8.358764648E-2
6.352555894E1,4.668884277E-1,-5.313720703E-1,2.442474365E-1
6.357555894E1,1.131896973E-1,2.193756104E-1,1.232910156E-1
6.362555894E1,3.355560303E-1,-2.473297119E-1,7.843017578E-3
6.367555894E1,2.512512207E-1,6.543121338E-1,9.519958496E-2
6.372555894E1,-4.280242920E-1,2.102050781E-1,1.678771973E-1
6.377555894E1,3.508300781E-1,-3.847656250E-1,5.401611328E-3
6.382555894E1,-3.211212158E-1,2.065429688E-1,3.383178711E-1
6.387555894E1,-6.578063965E-2,-6.370544434E-1,3.713073730E-1
6.392555894E1,6.301879883E-3,9.780883789E-2,2.240905762E-1
6.397555894E1,2.646942139E-1,-8.055114746E-2,1.342926025E-1
6.402555894E1,1.755065918E-1,-1.361389160E-1,4.815673828E-2
6.407555894E1,1.321411133E-1,-2.216644287E-1,-2.529907227E-1
6.412555894E1,6.555175781E-2,-1.905059814E-1,-1.876373291E-1
6.417555894E1,4.356384277E-2,-1.947021484E-2,-3.122558594E-1
6.422555894E1,-7.035217285E-1,-3.139038086E-1,-4.448089600E-1
6.427555894E1,-1.983337402E-1,1.992187500E-1,-6.298980713E-1
6.432555894E1,-3.101196289E-1,1.802825928E-1,2.906646729E-1
6.437555894E1,7.165527344E-2,2.511596680E-2,8.847045898E-2
6.442555894E1,5.393981934E-2,9.194335938E-1,-5.599975586E-3
6.447555894E1,1.095275879E-1,1.594543457E-2,1.159667969E-1
6.452555894E1,3.661041260E-1,-5.661926270E-1,7.807922363E-2
6.457555894E1,2.170410156E-1,3.067321777E-1,6.159973145E-2
6.462555894E1,8.509826660E-2,-3.407897949E-1,-1.479339600E-1
6.467555894E1,3.056182861E-1,8.955993652E-1,8.786010742E-2
6.472555894E1,-7.359008789E-1,-5.527648926E-1,-1.778564453E-1
6.477555894E1,4.113006592E-1,1.222534180E-1,8.419799805E-2
6.482555894E1,-2.319335938E-1,-2.302246094E-1,2.369079590E-1
6.487555894E1,-1.757354736E-1,-5.245971680E-2,1.849822998E-1
6.492555894E1,6.912231445E-3,1.356811523E-1,8.419799805E-2
6.497555894E1,2.200927734E-1,-2.057800293E-1,2.356872559E-1
6.502555894E1,5.455017090E-2,-2.760314941E-1,1.335144043E-2
6.507555894E1,3.073120117E-2,-2.558746338E-1,-9.173583984E-2
6.512555894E1,1.351928711E-1,1.081848145E-1,-1.638183594E-1
6.517555894E1,9.353637695E-3,3.085632324E-1,-8.927917480E-2
6.522555894E1,-7.359008789E-1,-7.091369629E-1,-6.115722656E-1
6.527555894E1,2.023925781E-1,3.238372803E-1,1.394653320E-2
6.532555894E1,-2.985229492E-1,2.065429688E-1,1.868286133E-1
6.537555894E1,-1.280822754E-1,1.515655518E-1,-1.412048340E-1
6.542555894E1,-2.258300781E-3,3.079528809E-1,1.342926025E-1
6.547555894E1,2.121582031E-1,-2.191162109E-2,3.004455566E-1
6.552555894E1,2.219390869E-1,-1.579284668E-2,4.690551758E-1
6.557555894E1,1.382446289E-1,-8.422851562E-2,2.485198975E-1
6.562555894E1,9.671020508E-2,3.611755371E-2,2.014923096E-1
6.567555894E1,-1.952819824E-1,5.351867676E-1,3.377075195E-1
6.572555894E1,4.204711914E-1,-5.600891113E-1,-2.804870605E-1
6.577555894E1,-2.924194336E-1,9.597473145E-1,3.059387207E-1
6.582555894E1,-1.067047119E-1,-5.961303711E-1,1.868286133E-1
6.587555894E1,-7.554626465E-2,4.545593262E-1,3.022766113E-1
6.592555894E1,1.113739014E-1,-8.970642090E-2,2.955474854E-1
6.597555894E1,2.933959961E-1,-1.520233154E-1,2.356872559E-1
6.602555894E1,1.606750488E-2,-1.336975098E-1,-5.567932129E-2
6.607555894E1,2.335357666E-1,-4.672393799E-1,-6.118774414E-2
6.612555894E1,-1.641235352E-1,1.906585693E-1,-2.426147461E-1
6.617555894E1,-4.903259277E-1,-4.000396729E-1,-3.690643311E-1
6.622555894E1,-2.148284912E-1,2.212066650E-1,-5.449829102E-1
6.627555894E1,-5.080566406E-1,4.252471924E-1,2.075958252E-1
6.632555894E1,-1.384582520E-1,-3.303985596E-1,2.014923096E-1
6.637555894E1,-1.325988770E-2,7.196807861E-1,4.091796875E-1
6.642555894E1,2.048339844E-1,-1.239166260E-1,3.596954346E-1
6.647555894E1,2.885131836E-1,-1.172027588E-1,3.169403076E-1
6.652555894E1,3.544921875E-1,1.949310303E-1,1.898803711E-1
6.657555894E1,4.094696045E-1,-1.648559570E-1,4.876708984E-2
6.662555894E1,2.946319580E-1,1.324447632E0,-5.690002441E-2
6.667555894E1,-3.027954102E-1,-7.910003662E-1,-1.723632812E-1
6.672555894E1,9.608459473E-2,1.033020020E-1,-9.262084961E-3
6.677555894E1,-3.449401855E-1,-2.558746338E-1,5.548095703E-2
6.682555894E1,-1.366424561E-1,-2.766418457E-1,5.609130859E-2
6.687555894E1,-1.183166504E-1,1.448364258E-1,-6.362915039E-2
6.692555894E1,3.386077881E-1,-3.633880615E-1,1.868286133E-1
6.697555894E1,3.134155273E-2,-1.129302979E-1,-1.534271240E-1
6.702555894E1,1.083068848E-1,-3.218536377E-1,-8.439636230E-2
6.707555894E1,2.890014648E-2,-3.224639893E-1,-1.858062744E-1
6.712555894E1,-1.457977295E-1,2.151031494E-1,-1.149444580E-1
6.717555894E1,-3.064575195E-1,-1.483612061E-1,-6.018066406E-1
6.722555894E1,-2.435455322E-1,3.611755371E-2,6.097412109E-2
6.727555894E1,-3.199005127E-1,1.234741211E-1,-7.400512695E-2
6.732555894E1,-7.798767090E-2,6.237792969E-1,2.066040039E-2
6.737555894E1,1.535186768E-1,-3.413391113E-2,2.436370850E-1
6.742555894E1,3.147888184E-1,-2.063903809E-1,1.746063232E-1
6.747555894E1,3.563232422E-1,1.576843262E-1,2.650146484E-1
6.752555894E1,3.624267578E-1,-1.666870117E-1,3.776550293E-2
6.757555894E1,3.386077881E-1,4.313507080E-1,1.457214355E-2
6.762555894E1,-2.728576660E-1,2.254791260E-1,5.548095703E-2
6.767555894E1,1.950531006E-1,-2.473297119E-1,-3.262939453E-1
6.772555894E1,-4.298553467E-1,1.674499512E-1,1.733856201E-1
6.777555894E1,-3.596038818E-1,-3.927001953E-1,1.336669922E-1
6.782555894E1,-1.286926270E-1,3.739166260E-1,1.489562988E-1
6.787555894E1,1.913909912E-1,-2.222747803E-1,2.485198975E-1
6.792555894E1,2.366027832E-1,-2.583160400E-1,8.297729492E-2
6.797555894E1,2.103271484E-1,-3.756103516E-1,-6.607055664E-2
6.802555894E1,2.109375000E-1,-1.269836426E-1,-1.088409424E-1
6.807555894E1,2.231597900E-1,7.521057129E-2,-2.303924561E-1
6.812555894E1,-6.192169189E-1,-7.200622559E-2,-4.026489258E-1
6.817555894E1,-2.355957031E-1,2.694702148E-2,-5.010070801E-1
6.822555894E1,-4.396362305E-1,5.223693848E-1,2.369079590E-1
6.827555894E1,-2.746887207E-1,-2.923583984E-2,3.859710693E-1
6.832555894E1,-3.889465332E-2,8.497619629E-2,4.165039062E-1
6.837555894E1,3.561401367E-2,1.112518311E-1,3.664093018E-1
6.842555894E1,3.459472656E-1,-2.656555176E-1,3.853607178E-1
6.847555894E1,2.347564697E-1,2.065429688E-1,1.978149414E-1
6.852555894E1,2.347564697E-1,-1.763916016E-2,6.831359863E-2
6.857555894E1,2.262115479E-1,8.504028320E-1,1.110687256E-1
6.862555894E1,-5.013275146E-1,-6.657714844E-1,-1.204376221E-1
6.867555894E1,2.543029785E-1,4.081420898E-1,1.086273193E-1
6.872555894E1,-3.760986328E-1,-2.852020264E-1,1.031341553E-1
6.877555894E1,-7.066345215E-2,1.027069092E-1,3.706970215E-1
6.882555894E1,1.700134277E-1,3.287200928E-1,2.399749756E-1
6.887555894E1,2.762908936E-1,-7.017517090E-2,3.328247070E-1
6.892555894E1,6.738281250E-2,-2.283782959E-1,7.075500488E-2
6.897555894E1,8.937072754E-2,-5.460357666E-1,-4.103088379E-2
6.902555894E1,-1.714477539E-1,-4.024810791E-1,-3.592834473E-1
6.907555894E1,-2.789306641E-2,3.598785400E-1,-3.098144531E-1
6.912555894E1,-9.191589355E-1,-3.664398193E-1,-9.561004639E-1
6.917555894E1,1.423645020E-2,5.639038086E-1,-2.933044434E-1
6.922555894E1,-6.070098877E-1,-2.491455078E-1,-3.430175781E-2
6.927555894E1,1.911926270E-2,4.899902344E-1,2.308044434E-1
6.932555894E1,2.951049805E-2,3.085632324E-1,1.269531250E-1
6.937555894E1,3.227233887E-1,-3.694915771E-1,8.786010742E-2
6.942555894E1,2.152099609E-1,-5.795288086E-2,3.044128418E-2
6.947555894E1,3.465576172E-1,4.222106934E-2,9.335327148E-2
6.952555894E1,3.129577637E-1,1.412963867E-2,6.770324707E-2
6.957555894E1,3.129577637E-1,7.086791992E-1,7.319641113E-2
6.962555894E1,-5.135498047E-1,-7.879486084E-1,-2.328338623E-1
6.967555894E1,2.523803711E-2,3.720855713E-1,1.965942383E-1
6.972555894E1,-1.873321533E-1,-5.356597900E-1,4.097900391E-1
6.977555894E1,-1.183166504E-1,-5.734252930E-2,3.645935059E-1
6.982555894E1,-6.761169434E-2,2.713012695E-1,4.238433838E-1
6.987555894E1,2.817993164E-1,-2.717590332E-1,4.012298584E-1
6.992555894E1,-1.936340332E-2,3.128051758E-3,-3.002929688E-2
6.997555894E1,1.809997559E-1,-3.694915771E-1,2.128601074E-2
7.002555894E1,2.217102051E-2,-2.143402100E-1,-2.731628418E-1
7.007555894E1,9.730529785E-2,2.022705078E-1,-1.980133057E-1
7.012555894E1,-7.206268311E-1,-2.607574463E-1,-9.109039307E-1
7.017555894E1,6.616210938E-2,6.518707275E-1,-1.925201416E-1
7.022555894E1,-3.871002197E-1,2.389526367E-2,1.587219238E-1
7.027555894E1,1.058654785E-1,-3.420104980E-1,1.507720947E-1
7.032555894E1,5.821228027E-2,5.651245117E-1,2.705078125E-1
7.037555894E1,2.756958008E-1,-3.969879150E-1,3.163299561E-1
7.042555894E1,2.897338867E-1,6.359863281E-2,3.022766113E-1
7.047555894E1,2.928009033E-1,1.161346436E-1,2.112579346E-1
7.052555894E1,2.494201660E-1,-5.340576172E-4,1.507720947E-1
7.057555894E1,-1.659698486E-1,6.017761230E-1,1.727752686E-1
7.062555894E1,-6.761169434E-2,-1.167892456E0,-2.646026611E-1
7.067555894E1,-1.610717773E-1,6.585845947E-1,2.033081055E-1
7.072555894E1,-4.628448486E-1,-1.055908203E-1,1.837615967E-1
7.077555894E1,-1.445770264E-1,2.023315430E-2,3.859710693E-1
7.082555894E1,1.608428955E-1,3.182983398E-2,3.493041992E-1
7.087555894E1,3.019561768E-1,-1.679077148E-1,2.167510986E-1
7.092555894E1,2.145996094E-1,-2.180023193E-1,-1.902770996E-2
7.097555894E1,1.950531006E-1,-4.916687012E-1,-2.175598145E-1
7.102555894E1,-8.959960938E-2,-1.679077148E-1,-3.403472900E-1
7.107555894E1,-4.548950195E-1,7.215881348E-2,-1.919097900E-1
7.112555894E1,-7.365112305E-1,-4.605255127E-1,-7.771301270E-1
7.117555894E1,3.256225586E-2,5.803985596E-1,2.497406006E-1
7.122555894E1,-2.001647949E-1,1.784515381E-1,-1.719665527E-2
7.127555894E1,2.689666748E-1,6.720275879E-1,2.045288086E-1
7.132555894E1,1.730651855E-1,3.739166260E-1,2.674560547E-1
7.137555894E1,4.174041748E-1,-4.006500244E-1,3.957366943E-1
7.142555894E1,2.427062988E-1,2.700653076E-1,4.366607666E-1
7.147555894E1,3.092803955E-1,-2.570953369E-1,3.364868164E-1
7.152555894E1,3.404388428E-1,5.675659180E-1,1.837615967E-1
7.157555894E1,-6.461029053E-1,-5.851287842E-1,-1.467132568E-1
7.162555894E1,3.172302246E-1,1.399536133E-1,-9.155273438E-5
7.167555894E1,-4.726257324E-1,4.356231689E-1,1.823425293E-2
7.172555894E1,-1.708526611E-1,-8.666992188E-2,1.721649170E-1
7.177555894E1,-3.034973145E-2,2.352600098E-1,8.480834961E-2
7.182555894E1,9.426879883E-2,-9.094238281E-2,3.554229736E-1
7.187555894E1,2.488098145E-1,-3.279571533E-1,1.943969727E-2
7.192555894E1,-6.272888184E-2,-2.088317871E-1,-1.570892334E-1
7.197555894E1,4.417419434E-2,-2.057800293E-1,-1.595306396E-1
7.202555894E1,-6.210327148E-2,2.957305908E-1,-2.841491699E-1
7.207555894E1,-6.760406494E-1,-5.814666748E-1,-8.882904053E-1
7.212555894E1,2.640838623E-1,6.427001953E-1,-1.570892334E-1
7.217555894E1,-3.186798096E-1,7.734375000E-1,6.159973145E-2
7.222555894E1,1.315155029E-1,2.022705078E-1,-7.829284668E-2
7.227555894E1,-6.272888184E-2,3.849182129E-1,7.014465332E-2
7.232555894E1,2.249908447E-1,-4.000396729E-1,2.155303955E-1
7.237555894E1,1.516876221E-1,-1.960144043E-1,2.210235596E-1
7.242555894E1,1.046447754E-1,-7.810974121E-2,9.396362305E-2
7.247555894E1,5.548553467E-1,-1.880645752E-1,2.100372314E-1
7.252555894E1,2.836303711E-1,1.345214844E0,6.709289551E-2
7.257555894E1,-8.837890625E-2,-7.720642090E-1,-2.316131592E-1
7.262555894E1,-6.333923340E-2,-2.740478516E-2,1.110687256E-1
7.267555894E1,-2.313232422E-1,1.888275146E-1,1.269531250E-1
7.272555894E1,-3.919830322E-1,-3.401794434E-1,7.870483398E-2
7.277555894E1,3.337249756E-1,-5.826873779E-1,2.595214844E-1
7.282555894E1,-4.928588867E-2,-1.410217285E-1,1.538391113E-1
7.287555894E1,-9.265136719E-2,-2.796936035E-1,1.739501953E-3
7.292555894E1,-3.889465332E-2,-5.533599854E-1,-2.102355957E-1
7.297555894E1,-4.684448242E-2,-1.153717041E-1,-3.153076172E-1
7.302555894E1,-2.607727051E-2,1.570587158E-1,-2.132873535E-1
7.307555894E1,-1.936340332E-2,8.131408691E-2,-8.064422607E-1
7.312555894E1,3.691558838E-1,3.042755127E-1,1.116790771E-1
7.317555894E1,-1.916198730E-1,4.893798828E-1,6.953430176E-2
7.322555894E1,3.746490479E-1,9.902954102E-2,1.489562988E-1
7.327555894E1,1.522979736E-1,8.436584473E-2,1.190185547E-1
7.332555894E1,2.805786133E-1,-7.872009277E-2,2.845611572E-1
7.337555894E1,1.559600830E-1,2.083740234E-1,3.077697754E-1
7.342555894E1,5.393981934E-2,1.521759033E-1,3.157196045E-1
7.347555894E1,1.913909912E-1,7.380065918E-1,2.845611572E-1
7.352555894E1,-7.365112305E-1,-8.227691650E-1,-1.925201416E-1
7.357555894E1,3.508300781E-1,4.227905273E-1,-6.240844727E-2
7.362555894E1,-5.092773438E-1,-8.468627930E-3,1.043548584E-1
7.367555894E1,-4.684448242E-2,-6.222534180E-2,4.146728516E-1
7.372555894E1,5.065917969E-3,1.576843262E-1,2.644042969E-1
7.377555894E1,4.858245850E-1,-6.181182861E-1,2.576751709E-1
7.382555894E1,6.005859375E-2,3.611755371E-2,6.648254395E-2
7.387555894E1,2.475891113E-1,-5.924530029E-1,-4.347229004E-2
7.392555894E1,-1.274719238E-1,-2.754211426E-1,-2.780456543E-1
7.397555894E1,-7.983398438E-2,5.663452148E-1,-1.841735840E-2
7.402555894E1,-9.436035156E-1,-6.779937744E-1,-6.201324463E-1
7.407555894E1,1.455841064E-1,2.334289551E-1,-9.477233887E-2
7.412555894E1,-1.427459717E-1,6.824188232E-1,3.316040039E-1
7.417555894E1,-3.278503418E-1,-2.546539307E-1,1.943969727E-2
7.422555894E1,1.632843018E-1,-1.184387207E-1,-7.431030273E-3
7.427555894E1,2.462768555E-2,8.682250977E-2,1.214599609E-1
7.432555894E1,2.976837158E-1,-1.091003418E-2,1.697235107E-1
7.437555894E1,2.145996094E-1,1.252899170E-1,2.020874023E-1
7.442555894E1,5.393981934E-2,3.753662109E-3,1.770477295E-1
7.447555894E1,1.911926270E-2,4.624938965E-1,1.471099854E-1
7.452555894E1,7.594299316E-2,-1.275634766E-2,-4.774475098E-2
7.457555894E1,-2.905731201E-1,6.335449219E-1,3.993988037E-1
7.462555894E1,-2.966766357E-1,-5.124359131E-1,2.094268799E-1
7.467555894E1,-4.684448242E-2,4.771575928E-1,1.782684326E-1
7.472555894E1,1.895599365E-1,4.350128174E-1,3.719177246E-1
7.477555894E1,4.290161133E-1,-4.073638916E-1,2.075958252E-1
7.482555894E1,9.915161133E-2,-4.140930176E-1,-1.491546631E-1
7.487555894E1,7.350158691E-2,-3.908843994E-1,-3.183593750E-1
7.492555894E1,-2.771301270E-1,1.136932373E-1,-5.620880127E-1
7.497555894E1,-4.671173096E-1,-1.966247559E-1,-2.444458008E-1
7.502555894E1,-3.871002197E-1,-3.303985596E-1,-9.445037842E-1
7.507555894E1,9.730529785E-2,3.678131104E-1,1.886596680E-1
7.512555894E1,-2.032165527E-1,-3.719329834E-1,-1.314239502E-1
7.517555894E1,2.828979492E-2,3.171234131E-1,-2.636718750E-2
7.522555894E1,-9.632873535E-2,3.323822021E-1,3.410339355E-2
7.527555894E1,2.304840088E-1,-4.403533936E-1,2.973937988E-1
7.532555894E1,1.174774170E-1,2.938842773E-2,3.548126221E-1
7.537555894E1,1.828308105E-1,1.442413330E-1,4.232177734E-1
7.542555894E1,3.477783203E-1,2.957305908E-1,1.911010742E-1
7.547555894E1,-3.400573730E-1,1.491241455E-1,8.724975586E-2
7.552555894E1,5.438537598E-1,2.639617920E-1,2.558441162E-1
7.557555894E1,-4.487915039E-1,2.401428223E-1,3.633575439E-1
7.562555894E1,2.401733398E-2,-7.769470215E-1,2.314147949E-1
7.567555894E1,-2.667236328E-2,1.485137939E-1,2.234802246E-1
7.572555894E1,3.153991699E-1,2.865753174E-1,2.662353516E-1
7.577555894E1,2.420959473E-1,-3.859863281E-1,1.654357910E-1
7.582555894E1,-4.089355469E-3,-2.467041016E-1,-3.247070312E-2
7.587555894E1,1.186981201E-1,-5.338134766E-1,-3.146972656E-1
7.592555894E1,-3.523254395E-2,4.142456055E-1,-4.387054443E-1
7.597555894E1,-1.059661865E0,-4.214172363E-1,-7.978973389E-1
7.602555894E1,-1.647949219E-3,1.399536133E-1,-1.851959229E-1
7.607555894E1,-5.624084473E-1,3.238372803E-1,3.878021240E-1
7.612555894E1,-2.392578125E-1,-2.686920166E-1,1.214599609E-1
7.617555894E1,-2.241516113E-2,5.785675049E-1,1.110687256E-1
7.622555894E1,1.700134277E-1,-1.335144043E-2,8.175659180E-2
7.627555894E1,3.465576172E-1,-2.589263916E-1,1.312255859E-1
7.632555894E1,2.915802002E-1,3.812561035E-1,4.020690918E-2
7.637555894E1,2.115478516E-1,-2.063903809E-1,1.819458008E-1
7.642555894E1,4.661560059E-2,9.084320068E-1,2.161407471E-1
7.647555894E1,-3.266296387E-1,-1.293746948E0,-1.705322266E-1
7.652555894E1,2.066650391E-1,4.368438721E-1,3.206024170E-1
7.657555894E1,-4.414520264E-1,-2.131195068E-1,8.724975586E-2
7.662555894E1,5.455017090E-2,-2.234954834E-1,8.419799805E-2
7.667555894E1,5.761718750E-2,3.311614990E-1,2.063751221E-1
7.672555894E1,3.062438965E-1,-2.705383301E-1,2.546234131E-1
7.677555894E1,3.927612305E-2,-1.306457520E-1,1.507720947E-1
7.682555894E1,3.845214844E-3,-2.644348145E-1,1.943969727E-2
7.687555894E1,1.911926270E-2,1.057434082E-1,-9.783935547E-2
7.692555894E1,-3.174591064E-1,1.595001221E-1,-4.408264160E-2
7.697555894E1,-1.708526611E-1,-2.461090088E-1,-5.584259033E-1
7.702555894E1,1.852874756E-1,4.441680908E-1,5.038604736E-1
7.707555894E1,-9.938049316E-2,-2.496337891E-2,1.257324219E-1
7.712555894E1,1.333618164E-1,3.549957275E-1,-8.805847168E-2
7.717555894E1,-3.950500488E-2,2.682495117E-1,-3.247070312E-2
7.722555894E1,4.962158203E-1,-4.623413086E-1,1.666564941E-1
7.727555894E1,7.409667969E-2,4.264678955E-1,1.690979004E-1
7.732555894E1,3.777008057E-1,-3.395690918E-1,1.917114258E-1
7.737555894E1,4.015197754E-1,8.461303711E-1,2.075958252E-1
7.742555894E1,-3.498382568E-1,-7.610626221E-1,-2.453613281E-2
7.747555894E1,1.162567139E-1,2.059326172E-1,-1.015014648E-1
7.752555894E1,-3.565521240E-1,-4.385223389E-1,4.449462891E-2
7.757555894E1,-2.363586426E-2,-2.039489746E-1,1.593322754E-1
7.762555894E1,-1.378631592E-1,3.623199463E-1,5.548095703E-2
7.767555894E1,3.654937744E-1,-5.381011963E-1,3.334350586E-1
7.772555894E1,1.394653320E-1,-9.277343750E-2,4.998779297E-2
7.777555894E1,6.311035156E-2,3.123474121E-2,-7.278442383E-2
7.782555894E1,5.639648438E-2,-3.591156006E-1,-1.210479736E-1
7.787555894E1,1.339721680E-1,3.971405029E-1,-1.613616943E-1
7.792555894E1,-8.287506104E-1,-4.446411133E-1,-4.655761719E-1
7.797555894E1,2.584838867E-2,1.442413330E-1,-1.540374756E-1
7.802555894E1,-4.927673340E-1,4.771423340E-2,1.654357910E-1
7.807555894E1,-4.499816895E-2,6.971740723E-2,-6.179809570E-2
7.812555894E1,6.005859375E-2,4.930419922E-1,3.532409668E-2
7.817555894E1,2.523803711E-2,-8.468627930E-3,-1.312255859E-3
7.822555894E1,2.329254150E-1,-3.438415527E-1,1.892700195E-1
7.827555894E1,-1.183166504E-1,2.413635254E-1,1.025238037E-1
7.832555894E1,5.682983398E-1,-4.389953613E-2,1.813201904E-1
7.837555894E1,2.286529541E-1,1.056259155E0,9.152221680E-2
7.842555894E1,-1.720733643E-1,-6.431732178E-1,3.166198730E-2
7.847555894E1,2.035522461E-2,9.536743164E-2,2.082061768E-1
7.852555894E1,-4.231262207E-1,-5.490112305E-2,2.277526855E-1
7.857555894E1,-5.477905273E-2,3.421630859E-1,3.658142090E-1
7.862555894E1,1.241912842E-1,2.541961670E-1,2.320251465E-1
7.867555894E1,2.775268555E-1,-2.241058350E-1,1.923217773E-1
7.872555894E1,-7.432556152E-2,-1.110992432E-1,1.080169678E-1
7.877555894E1,2.109375000E-1,-2.937469482E-1,1.129150391E-3
7.882555894E1,-1.457977295E-1,3.042755127E-1,-1.576995850E-1
7.887555894E1,-2.032165527E-1,-4.145812988E-2,-1.668548584E-1
7.892555894E1,-7.230682373E-1,-2.937469482E-1,-7.203063965E-1
7.897555894E1,3.190612793E-1,8.082580566E-1,6.443634033E-1
7.902555894E1,-2.119445801E-2,1.491241455E-1,3.199920654E-1
7.907555894E1,1.944427490E-1,5.889434814E-1,4.142761230E-2
7.912555894E1,6.555175781E-2,3.904113770E-1,7.136535645E-2
7.917555894E1,4.473419189E-1,-6.388854980E-1,2.369079590E-1
7.922555894E1,8.753967285E-2,-2.314453125E-1,1.135253906E-1
7.927555894E1,4.722595215E-2,-4.904479980E-1,1.091003418E-2
7.932555894E1,1.972961426E-2,5.968933105E-1,2.790679932E-1
7.937555894E1,-6.638183594E-1,-5.955200195E-1,9.701538086E-2
7.942555894E1,-1.203918457E-2,4.631195068E-1,2.960205078E-3
7.947555894E1,-2.594299316E-1,1.033020020E-1,2.644042969E-1
7.952555894E1,-2.423248291E-1,-3.236846924E-1,2.295837402E-1
7.957555894E1,-2.026214600E-1,8.741760254E-2,1.685028076E-1
7.962555894E1,2.793579102E-1,-5.466461182E-1,2.637939453E-1
7.967555894E1,1.162567139E-1,-4.837341309E-1,-6.362915039E-2
7.972555894E1,1.712341309E-1,-4.770050049E-1,-1.454925537E-1
7.977555894E1,7.472229004E-2,-4.389953613E-2,-2.719421387E-1
7.982555894E1,3.250122070E-3,1.381378174E-1,-2.988128662E-1
7.987555894E1,-9.698638916E-1,-5.839080811E-1,-7.429199219E-1
7.992555894E1,1.498565674E-1,7.098999023E-1,1.330718994E-1
7.997555894E1,-1.342010498E-1,4.100036621E-2,4.482727051E-1
8.002555894E1,3.984832764E-1,1.259155273E-1,1.911010742E-1
8.007555894E1,3.744506836E-2,5.040435791E-1,-8.927917480E-2
8.012555894E1,4.125213623E-1,-1.990661621E-1,1.984252930E-1
8.017555894E1,2.781372070E-1,-8.604431152E-2,2.210235596E-1
8.022555894E1,1.186981201E-1,2.554168701E-1,3.688659668E-1
8.027555894E1,1.816101074E-1,6.359863281E-2,2.259216309E-1
8.032555894E1,-9.509277344E-2,1.037933350E0,2.656250000E-1
8.037555894E1,-1.170959473E-1,-1.169128418E0,1.617736816E-1
8.042555894E1,1.199188232E-1,3.128051758E-3,3.829040527E-1
8.047555894E1,-3.944244385E-1,8.009338379E-2,1.483306885E-1
8.052555894E1,-6.530761719E-3,-3.591156006E-1,2.308044434E-1
8.057555894E1,1.388549805E-1,1.845550537E-1,1.300048828E-1
8.062555894E1,2.903594971E-1,1.106262207E-2,1.025238037E-1
8.067555894E1,2.744750977E-1,-1.117095947E-1,-3.063964844E-2
8.072555894E1,-2.119445801E-2,1.472930908E-1,-1.570892334E-1
8.077555894E1,5.699157715E-2,4.405212402E-2,-1.790771484E-1
8.082555894E1,-5.782928467E-1,-1.275939941E-1,-3.941040039E-1
8.087555894E1,-2.429351807E-1,-4.328918457E-2,-5.627136230E-1
8.092555894E1,-1.751708984E-2,8.461303711E-1,1.917114258E-1
8.097555894E1,-4.964447021E-1,-3.994293213E-1,-1.719665527E-2
8.102555894E1,1.590118408E-1,-1.532440186E-1,7.232666016E-3
8.107555894E1,-1.732940674E-1,4.655609131E-1,1.892700195E-1
8.112555894E1,3.960418701E-1,-3.346710205E-1,3.138732910E-1
8.117555894E1,2.799682617E-1,1.216278076E-1,3.187713623E-1
8.122555894E1,4.870452881E-1,-1.579284668E-2,2.002563477E-1
8.127555894E1,1.999359131E-1,7.361602783E-1,2.066040039E-2
8.132555894E1,-2.869110107E-1,-8.276519775E-1,-3.690643311E-1
8.137555894E1,-2.363586426E-2,6.537017822E-1,-5.323791504E-2
8.142555894E1,-3.058471680E-1,-7.910003662E-1,-1.048278809E-2
8.147555894E1,-1.769561768E-1,2.914581299E-1,1.593322754E-1
8.152555894E1,-1.610717773E-1,2.529754639E-1,-2.758789062E-2
8.157555894E1,2.200927734E-1,-2.076110840E-1,1.697235107E-1
8.162555894E1,3.073120117E-2,-1.019287109E-1,7.746887207E-2
8.167555894E1,4.143676758E-1,-2.900848389E-1,8.724975586E-2
8.172555894E1,1.944427490E-1,4.282836914E-1,-8.622741699E-2
8.177555894E1,1.669616699E-1,1.472930908E-1,-1.536560059E-2
8.182555894E1,-6.033325195E-1,-2.613677979E-1,-6.091308594E-1
8.187555894E1,-1.385498047E-2,3.733062744E-1,1.031341553E-1
8.192555894E1,-4.787292480E-1,-3.914794922E-1,5.426025391E-2
8.197555894E1,-1.164703369E-1,2.218170166E-1,5.059814453E-2
8.202555894E1,-1.042633057E-1,1.466827393E-1,1.251220703E-1
8.207555894E1,2.414855957E-1,-1.373596191E-1,2.961730957E-1
8.212555894E1,8.815002441E-2,-3.535461426E-2,2.613525391E-1
8.217555894E1,4.015197754E-1,-2.564849854E-1,3.743591309E-1
8.222555894E1,1.309204102E-1,-1.086578369E-1,3.166198730E-2
8.227555894E1,-5.783081055E-2,1.332397461E-1,1.568908691E-1
8.232555894E1,1.301574707E-2,-2.528228760E-1,-3.159179688E-1
8.237555894E1,-2.691955566E-1,4.582214355E-1,1.159667969E-1
8.242555894E1,-2.239990234E-1,-4.403533936E-1,6.159973145E-2
8.247555894E1,-9.938049316E-2,2.645874023E-1,1.575012207E-1
8.252555894E1,2.543029785E-1,-2.070007324E-1,1.978149414E-1
8.257555894E1,2.781372070E-1,-1.239166260E-1,1.147460938E-1
8.262555894E1,3.306732178E-1,-1.245422363E-1,5.731201172E-2
8.267555894E1,3.819732666E-1,-3.835449219E-1,6.011962891E-3
8.272555894E1,1.345825195E-1,2.163238525E-1,-3.427886963E-1
8.277555894E1,-1.714477539E-1,3.446044922E-1,-2.511596680E-1
8.282555894E1,-3.980865479E-1,-2.241058350E-1,-7.783508301E-1
8.287555894E1,-2.685852051E-1,3.250579834E-1,4.937744141E-2
8.292555894E1,-8.666229248E-1,5.566406250E-2,-1.302032471E-1
8.297555894E1,3.195190430E-2,-5.307006836E-2,2.020874023E-1
8.302555894E1,1.926116943E-1,1.161346436E-1,3.493041992E-1
8.307555894E1,3.361663818E-1,-6.834411621E-2,3.059387207E-1
8.312555894E1,4.919433594E-1,-7.627868652E-2,3.560333252E-1
8.317555894E1,2.628631592E-1,1.869964600E-1,9.063720703E-3
8.322555894E1,3.630523682E-1,5.840606689E-1,9.701538086E-2
8.327555894E1,-6.296081543E-1,-6.700439453E-1,-3.886108398E-1
8.332555894E1,2.279663086E-2,6.396484375E-1,-9.965515137E-2
8.337555894E1,-4.903259277E-1,-4.263153076E-1,4.264831543E-2
8.342555894E1,-9.020996094E-2,1.778259277E-1,2.607421875E-1
8.347555894E1,8.743286133E-3,2.572631836E-2,1.746063232E-1
8.352555894E1,3.746490479E-1,-3.255157471E-1,2.167510986E-1
8.357555894E1,1.602325439E-1,-5.416870117E-3,-8.134460449E-2
8.362555894E1,4.253540039E-1,-4.146881104E-1,-1.381530762E-1
8.367555894E1,1.700134277E-1,9.841918945E-2,-2.346649170E-1
8.372555894E1,3.031768799E-1,1.430206299E-1,1.213073730E-2
8.377555894E1,-7.016906738E-1,-4.928894043E-1,-8.363800049E-1
8.382555894E1,3.134155273E-2,7.404479980E-1,-5.812072754E-2
8.387555894E1,-6.406097412E-1,2.151031494E-1,1.471099854E-1
8.392555894E1,-1.293029785E-1,9.292602539E-2,2.588958740E-1
8.397555894E1,-1.622924805E-1,8.314514160E-2,9.886169434E-2
8.402555894E1,2.219390869E-1,-1.801300049E-1,2.069854736E-1
8.407555894E1,2.561492920E-1,-4.196166992E-3,2.283630371E-1
8.412555894E1,2.115478516E-1,1.399536133E-1,6.159973145E-2
8.417555894E1,2.842407227E-1,2.688446045E-1,9.947204590E-2
8.422555894E1,-4.196166992E-2,4.704437256E-1,1.031341553E-1
8.427555894E1,-1.653442383E-1,-2.277679443E-1,-4.221954346E-1
8.432555894E1,-1.274719238E-1,4.008026123E-1,3.425903320E-1
8.437555894E1,-1.567993164E-1,-5.545806885E-1,1.104583740E-1
8.442555894E1,-2.099456787E-1,-5.429077148E-2,-7.766723633E-2
8.447555894E1,1.553497314E-1,-2.772521973E-1,2.922058105E-2
8.452555894E1,8.631896973E-2,-1.715698242E-1,-1.351013184E-1
8.457555894E1,1.504669189E-1,-1.844024658E-1,-1.314239502E-1
8.462555894E1,1.480255127E-1,-2.106628418E-1,-1.259460449E-1
8.467555894E1,1.547393799E-1,1.705017090E-1,-1.491546631E-1
8.472555894E1,-6.485443115E-1,-2.290039062E-1,-3.867797852E-1
8.477555894E1,7.531738281E-2,3.464355469E-1,-3.183593750E-1
8.482555894E1,-6.822204590E-2,5.846710205E-1,2.564544678E-1
8.487555894E1,-1.305389404E-1,-2.955780029E-1,4.632568359E-2
8.492555894E1,4.295349121E-2,4.826660156E-1,2.344665527E-1
8.497555894E1,-2.868652344E-3,-8.055114746E-2,8.969116211E-2
8.502555894E1,1.351928711E-1,-1.581268311E-1,4.097900391E-1
8.507555894E1,2.237701416E-1,1.515655518E-1,3.450469971E-1
8.512555894E1,9.793090820E-2,-1.593475342E-1,4.152832031E-1
8.517555894E1,2.390441895E-1,7.239532471E-1,2.375183105E-1
8.522555894E1,-5.434722900E-1,-1.042663574E0,-6.484985352E-2
8.527555894E1,2.653045654E-1,6.799774170E-1,2.796630859E-1
8.532555894E1,-3.082885742E-1,-5.014495850E-1,7.441711426E-2
8.537555894E1,-8.288574219E-2,1.301879883E-1,1.715545654E-1
8.542555894E1,-5.233764648E-2,8.253479004E-2,1.000823975E-1
8.547555894E1,2.842407227E-1,-1.459197998E-1,1.599426270E-1
8.552555894E1,3.622436523E-2,2.151031494E-1,-7.463073730E-2
8.557555894E1,-7.188415527E-2,-3.322296143E-1,3.105163574E-2
8.562555894E1,-3.584289551E-2,-1.630249023E-1,-1.369323730E-1
8.567555894E1,1.403808594E-3,4.600524902E-1,1.593322754E-1
8.572555894E1,-8.140869141E-1,-9.553222656E-1,-8.094940186E-1
8.577555894E1,3.978576660E-1,9.664611816E-1,4.360656738E-1
8.582555894E1,-2.869110107E-1,3.489685059E-2,1.660614014E-1
8.587555894E1,4.417419434E-2,1.535034180E-2,-4.530334473E-2
8.592555894E1,1.484680176E-2,2.615203857E-1,1.825408936E-1
8.597555894E1,2.756958008E-1,-5.845184326E-1,3.853607178E-1
8.602555894E1,2.103271484E-1,1.362915039E-1,2.314147949E-1
8.607555894E1,1.926116943E-1,-3.285675049E-1,2.625732422E-1
8.612555894E1,2.622528076E-1,-1.029968262E-2,2.686767578E-1
8.617555894E1,-4.196166992E-2,8.620147705E-1,3.291625977E-1
8.622555894E1,1.449584961E-1,-9.742584229E-1,1.813201904E-1
8.627555894E1,2.828979492E-2,7.460021973E-2,3.816833496E-1
8.632555894E1,-2.038421631E-1,-1.000976562E-1,2.006530762E-2
8.637555894E1,9.426879883E-2,-7.091369629E-1,2.676391602E-2
8.642555894E1,9.852600098E-2,6.805877686E-1,1.171875000E-1
8.647555894E1,2.683563232E-1,-2.619781494E-1,5.242919922E-2
8.652555894E1,1.113739014E-1,4.222106934E-2,5.426025391E-2
8.657555894E1,2.523803711E-2,2.639617920E-1,-1.106567383E-1
8.662555894E1,1.412963867E-1,1.326293945E-1,-2.207946777E-2
8.667555894E1,-4.481811523E-1,-6.527709961E-2,-2.493286133E-1
8.672555894E1,-3.828430176E-2,-3.114624023E-1,-3.598937988E-1
8.677555894E1,-1.586303711E-1,2.621307373E-1,1.361083984E-1
8.682555894E1,-3.418884277E-1,-3.145141602E-1,-5.874633789E-2
8.687555894E1,2.462768555E-2,3.916931152E-2,2.349853516E-3
8.692555894E1,1.718444824E-1,2.315979004E-1,8.724975586E-2
8.697555894E1,3.233337402E-1,3.427124023E-2,1.764373779E-1
8.702555894E1,2.292633057E-1,1.515655518E-1,2.014923096E-1
8.707555894E1,2.164306641E-1,-1.850128174E-1,2.088165283E-1
8.712555894E1,3.012084961E-2,6.891326904E-1,1.752166748E-1
8.717555894E1,-3.082885742E-1,-9.492034912E-1,-2.194061279E-1
8.722555894E1,-1.219787598E-1,8.803405762E-1,1.025238037E-1
8.727555894E1,-2.264404297E-1,-4.061431885E-1,1.037445068E-1
8.732555894E1,-1.995544434E-1,-2.857971191E-1,3.077697754E-1
8.737555894E1,-3.279113770E-2,-2.357177734E-1,-7.707214355E-2
8.742555894E1,1.406860352E-1,1.558380127E-1,2.381286621E-1
8.747555894E1,1.553497314E-1,-1.385803223E-1,-8.256530762E-2
8.752555894E1,2.353820801E-1,1.259155273E-1,3.654479980E-2
8.757555894E1,1.077117920E-1,7.629394531E-5,-1.882476807E-1
8.762555894E1,1.755065918E-1,2.798461914E-1,-6.973266602E-2
8.767555894E1,-6.809234619E-1,-2.583160400E-1,-4.887847900E-1
8.772555894E1,3.923645020E-1,4.612731934E-1,1.446685791E-1
8.777555894E1,-5.758514404E-1,-1.453094482E-1,-1.534271240E-1
8.782555894E1,-7.188415527E-2,1.008605957E-1,-1.155395508E-1
8.787555894E1,-5.661010742E-2,4.423522949E-1,3.242797852E-1
8.792555894E1,2.133789062E-1,-3.511657715E-1,4.317779541E-1
8.797555894E1,2.384185791E-1,-1.098785400E-1,4.091796875E-1
8.802555894E1,1.516876221E-1,1.876068115E-1,2.625732422E-1
8.807555894E1,2.408599854E-1,-2.961883545E-1,2.161407471E-1
8.812555894E1,7.043457031E-2,9.896850586E-1,1.489562988E-1
8.817555894E1,-3.156280518E-1,-8.606414795E-1,-2.639923096E-1
8.822555894E1,-2.349853516E-1,2.065429688E-1,9.701538086E-2
8.827555894E1,-3.791503906E-1,-8.055114746E-2,8.847045898E-2
8.832555894E1,-7.249450684E-2,8.741760254E-2,1.086273193E-1
8.837555894E1,-8.166503906E-2,-1.098785400E-1,1.074066162E-1
8.842555894E1,1.803894043E-1,-2.558746338E-1,1.373291016E-1
8.847555894E1,-3.889465332E-2,1.412963867E-2,-4.469299316E-2
8.852555894E1,2.836303711E-1,-3.719329834E-1,-1.338806152E-1
8.857555894E1,3.744506836E-2,2.266998291E-1,-2.529907227E-1
8.862555894E1,-2.728576660E-1,9.902954102E-2,-9.783935547E-2
8.867555894E1,-4.231262207E-1,1.479034424E-1,-4.967346191E-1
8.872555894E1,1.119689941E-1,5.651245117E-1,4.757537842E-1
8.877555894E1,-1.861114502E-1,-1.422424316E-1,3.218231201E-1
8.882555894E1,4.661560059E-2,2.132720947E-1,-2.407684326E-1
8.887555894E1,9.060668945E-2,1.350708008E-1,6.953430176E-2
8.892555894E1,4.021453857E-1,-7.139587402E-2,1.917114258E-1
8.897555894E1,3.972625732E-1,-1.397705078E-2,2.308044434E-1
8.902555894E1,4.296264648E-1,-1.165924072E-1,1.171875000E-1
8.907555894E1,2.787475586E-1,6.653137207E-1,1.660614014E-1
8.912555894E1,-4.872741699E-1,-1.133697510E0,-8.010864258E-2
8.917555894E1,1.602325439E-1,6.451416016E-1,6.953430176E-2
8.922555894E1,-5.819702148E-1,-1.117095947E-1,4.791259766E-3
8.927555894E1,-1.940612793E-1,-1.178131104E-1,2.796630859E-1
8.932555894E1,-8.349609375E-2,3.678131104E-1,1.678771973E-1
8.937555894E1,3.990173340E-2,-6.132354736E-1,2.112579346E-1
8.942555894E1,-6.761169434E-2,1.265106201E-1,1.128997803E-1
8.947555894E1,5.639648438E-2,-5.490112305E-2,-6.301879883E-2
8.952555894E1,-7.615661621E-2,-1.709594727E-1,-9.599304199E-2
8.957555894E1,-1.141357422E-2,1.185760498E-1,-2.758789062E-2
8.962555894E1,-7.145233154E-1,-3.896636963E-1,-4.753570557E-1
8.967555894E1,3.868713379E-1,-1.824951172E-2,-8.134460449E-2
8.972555894E1,-3.974761963E-1,-2.943572998E-1,-2.532958984E-3
8.977555894E1,1.596221924E-1,2.260894775E-1,1.208496094E-1
8.982555894E1,-8.776855469E-2,5.883483887E-1,4.791259766E-3
8.987555894E1,2.640838623E-1,-2.913055420E-1,2.320251465E-1
8.992555894E1,2.188720703E-1,2.206420898E-2,1.495513916E-1
8.997555894E1,1.639099121E-1,9.902954102E-2,2.576751709E-1
9.002555894E1,1.584014893E-1,-1.550903320E-1,-3.613281250E-2
9.007555894E1,1.858978271E-1,6.561431885E-1,1.141204834E-1
9.012555894E1,-5.324859619E-1,-6.737060547E-1,-2.713165283E-1
9.017555894E1,-1.091461182E-1,6.665039062E-2,-1.277618408E-1
9.022555894E1,-4.054260254E-1,-2.613677979E-1,6.648254395E-2
9.027555894E1,-1.842956543E-1,-1.544647217E-1,6.097412109E-2
9.032555894E1,8.631896973E-2,2.059326172E-1,8.663940430E-2
9.037555894E1,1.926116943E-1,-1.489715576E-1,1.562805176E-1
9.042555894E1,2.401733398E-2,-3.535461426E-2,-2.697753906E-2
9.047555894E1,2.157592773E-2,-1.642456055E-1,-5.752563477E-2
9.052555894E1,-1.897888184E-1,3.256683350E-1,-1.522064209E-1
9.057555894E1,-3.279113770E-2,2.199859619E-1,-8.041381836E-3
9.062555894E1,-2.960815430E-1,-3.108215332E-2,-7.074890137E-1
9.067555894E1,8.021545410E-2,4.948730469E-1,2.601165771E-1
9.072555894E1,-2.258300781E-1,-4.023742676E-2,2.372741699E-2
9.077555894E1,7.716369629E-2,6.989135742E-1,1.947631836E-1
9.082555894E1,1.419067383E-1,-4.939270020E-2,3.633575439E-1
9.087555894E1,3.441009521E-1,-2.984619141E-2,3.578643799E-1
9.092555894E1,7.775878906E-2,3.818664551E-1,2.234802246E-1
9.097555894E1,4.259643555E-1,-3.236846924E-1,4.171142578E-1
9.102555894E1,1.577911377E-1,5.119781494E-1,1.184082031E-1
9.107555894E1,-3.858795166E-1,5.046539307E-1,1.550598145E-1
9.112555894E1,4.235229492E-1,-4.617462158E-1,1.868286133E-1
9.117555894E1,-2.007751465E-1,-1.335144043E-2,2.375183105E-1
9.122555894E1,-1.659698486E-1,2.492980957E-1,1.825408936E-1
9.127555894E1,-1.457977295E-1,2.920684814E-1,6.892395020E-2
9.132555894E1,2.946319580E-1,-3.829345703E-1,5.548095703E-2
9.137555894E1,6.301879883E-3,2.328491211E-2,2.320251465E-1
9.142555894E1,2.145996094E-1,-3.975982666E-1,1.739501953E-3
9.147555894E1,1.901702881E-1,7.948303223E-2,-7.156372070E-2
9.152555894E1,1.131896973E-1,-1.062164307E-1,-1.473083496E-1
9.157555894E1,-4.139709473E-1,-9.948730469E-2,-3.482971191E-1
9.162555894E1,-1.238098145E-1,9.780883789E-2,-5.376586914E-1
9.167555894E1,-3.901519775E-1,1.851654053E-1,-8.256530762E-2
9.172555894E1,-1.928405762E-1,-9.094238281E-2,-5.752563477E-2
9.177555894E1,8.087158203E-4,3.305053711E-2,1.457214355E-2
9.182555894E1,2.249908447E-1,-2.314453125E-1,1.394653320E-2
9.187555894E1,2.995147705E-1,-9.704589844E-2,1.507720947E-1
9.192555894E1,2.091064453E-1,1.002502441E-1,-3.308105469E-2
9.197555894E1,1.400756836E-1,-8.360290527E-2,-9.355163574E-2
9.202555894E1,2.036132812E-1,5.413055420E-1,3.654479980E-2
9.207555894E1,-6.210632324E-1,-8.032073975E-1,-5.425415039E-1
9.212555894E1,1.663513184E-1,7.502288818E-1,-1.021118164E-1
9.217555894E1,-1.586303711E-1,-4.483032227E-1,8.602905273E-2
9.222555894E1,-4.074096680E-2,-2.363281250E-1,1.813201904E-1
9.227555894E1,-3.583831787E-1,-5.991821289E-1,1.306304932E-1
9.232555894E1,2.659149170E-1,1.094207764E-1,1.147460938E-1
9.237555894E1,3.195190430E-2,1.906585693E-1,-5.874633789E-2
9.242555894E1,1.180877686E-1,-6.893920898E-2,-2.575683594E-2
9.247555894E1,1.425170898E-1,-7.139587402E-2,-1.937866211E-3
9.252555894E1,1.193084717E-1,1.625671387E-1,-1.332702637E-1
9.257555894E1,-7.145233154E-1,-5.216064453E-1,-5.339965820E-1
9.262555894E1,1.034240723E-1,2.902374268E-1,-1.057739258E-1
9.267555894E1,-4.768829346E-1,1.802825928E-1,9.457397461E-2
9.272555894E1,8.087158203E-4,1.472930908E-1,1.300048828E-1
9.277555894E1,-2.912902832E-2,2.993927002E-1,2.075958252E-1
9.282555894E1,3.770904541E-1,-2.522125244E-1,2.320251465E-1
9.287555894E1,3.105010986E-1,1.753845215E-1,3.499298096E-1
9.292555894E1,3.453369141E-1,-1.092529297E-1,2.314147949E-1
9.297555894E1,2.738494873E-1,1.350402832E-2,1.275634766E-1
9.302555894E1,3.050079346E-1,3.507080078E-1,9.152221680E-2
9.307555894E1,-4.316864014E-1,-6.627197266E-1,-3.880004883E-1
9.312555894E1,-1.109771729E-1,5.144195557E-1,2.088165283E-1
9.317555894E1,-4.054260254E-1,-6.462249756E-1,5.364990234E-2
9.322555894E1,-1.238098145E-1,3.079528809E-1,1.116790771E-1
9.327555894E1,-1.325988770E-2,2.383117676E-1,8.358764648E-2
9.332555894E1,3.007354736E-1,-4.201965332E-1,5.548095703E-2
9.337555894E1,6.555175781E-2,1.020812988E-1,-1.564788818E-1
9.342555894E1,2.427062988E-1,-4.776153564E-1,-1.900787354E-1
9.347555894E1,1.057434082E-2,-2.632141113E-1,-4.008331299E-1
9.352555894E1,1.577911377E-1,2.767944336E-1,-4.286193848E-2
9.357555894E1,-6.522064209E-1,-4.880065918E-1,-7.765045166E-1
9.362555894E1,1.846771240E-1,6.463775635E-1,1.245117188E-1
9.367555894E1,-3.070678711E-1,-3.371124268E-1,7.380676270E-2
9.372555894E1,-8.288574219E-2,2.144927979E-1,6.953430176E-2
9.377555894E1,-8.532714844E-2,1.466827393E-1,1.794891357E-1
9.382555894E1,1.284790039E-1,-1.019287109E-1,2.766265869E-1
9.387555894E1,2.188720703E-1,1.124725342E-1,2.332458496E-1
9.392555894E1,3.092803955E-1,-1.556854248E-1,2.308044434E-1
9.397555894E1,3.850402832E-1,3.207855225E-1,2.882232666E-1
9.402555894E1,-2.203216553E-1,1.295776367E-1,1.819458008E-1
9.407555894E1,4.436798096E-1,-3.279571533E-1,1.123046875E-1
9.412555894E1,-5.312652588E-1,7.178344727E-1,1.287841797E-1
9.417555894E1,-2.472076416E-1,-6.315612793E-1,1.794891357E-1
9.422555894E1,-1.635131836E-1,4.362335205E-1,2.747802734E-1
9.427555894E1,1.058654785E-1,-2.082214355E-1,2.607421875E-1
9.432555894E1,1.559600830E-1,-2.984619141E-2,1.904907227E-1
9.437555894E1,7.897949219E-2,-3.585815430E-3,1.440582275E-1
9.442555894E1,1.712341309E-1,-4.275360107E-1,1.025238037E-1
9.447555894E1,7.522583008E-3,1.637878418E-1,-2.206268311E-1
9.452555894E1,-8.776855469E-2,4.039001465E-2,2.922058105E-2
9.457555894E1,-1.305389404E-1,-1.752319336E-1,-7.105255127E-1
9.462555894E1,-2.485656738E-2,1.711120605E-1,1.629943848E-1
9.467555894E1,-3.620452881E-1,-1.165924072E-1,8.453369141E-3
9.472555894E1,-1.311340332E-1,1.491241455E-1,2.554321289E-2
9.477555894E1,7.350158691E-2,-4.878234863E-2,2.583007812E-1
9.482555894E1,2.286529541E-1,-1.037750244E-1,2.588958740E-1
9.487555894E1,1.058654785E-1,3.268890381E-1,2.057647705E-1
9.492555894E1,1.822204590E-1,-8.482360840E-2,1.287841797E-1
9.497555894E1,2.249908447E-1,7.141723633E-1,6.892395020E-2
9.502555894E1,-3.986968994E-1,-1.275939941E-1,2.063751221E-1
9.507555894E1,2.915802002E-1,-7.164611816E-1,-7.400512695E-2
9.512555894E1,-2.465972900E-1,3.000183105E-1,2.570800781E-1
9.517555894E1,-2.795715332E-1,-3.884277344E-1,1.575012207E-1
9.522555894E1,-1.751708984E-2,-9.826660156E-2,3.044128418E-2
9.527555894E1,1.260375977E-1,1.442413330E-1,2.845611572E-1
9.532555894E1,1.510772705E-1,4.161071777E-2,1.335144043E-2
9.537555894E1,1.694030762E-1,-1.202545166E-1,-3.674316406E-2
9.542555894E1,4.295349121E-2,-1.300354004E-1,-6.362915039E-2
9.547555894E1,1.809997559E-1,2.431945801E-1,-1.167602539E-1
9.552555894E1,-8.031005859E-1,-7.433471680E-1,-3.941040039E-1
9.557555894E1,2.439270020E-1,2.932891846E-1,6.404113770E-2
9.562555894E1,-2.398681641E-1,3.128356934E-1,3.059387207E-1
9.567555894E1,-1.311340332E-1,-3.694915771E-1,1.213073730E-2
9.572555894E1,7.838439941E-2,2.199859619E-1,3.166198730E-2
9.577555894E1,1.846771240E-1,8.070373535E-2,1.147460938E-1
9.582555894E1,3.715972900E-1,3.489685059E-2,2.075958252E-1
9.587555894E1,2.433166504E-1,2.480773926E-1,1.685028076E-1
9.592555894E1,2.506408691E-1,2.938842773E-2,1.031341553E-1
9.597555894E1,1.484680176E-2,9.860229492E-1,1.355133057E-1
9.602555894E1,-3.657226562E-1,-1.334671021E0,-1.631927490E-1
9.607555894E1,-8.593750000E-2,1.130798340E0,4.452209473E-1
9.612555894E1,-2.533111572E-1,-4.977722168E-1,3.377075195E-1
9.617555894E1,-6.088256836E-2,5.261230469E-2,5.313568115E-1
9.622555894E1,-9.570312500E-2,1.460723877E-1,2.540130615E-1
9.627555894E1,2.145996094E-1,-3.242950439E-1,2.149200439E-1
9.632555894E1,9.730529785E-2,2.023315430E-2,-7.034301758E-2
9.637555894E1,2.176513672E-1,-2.021179199E-1,-9.721374512E-2
9.642555894E1,-8.288574219E-2,-2.057800293E-1,-3.556213379E-1
9.647555894E1,1.559600830E-1,2.578582764E-1,-2.340545654E-1
9.652555894E1,-5.899047852E-1,-3.988189697E-1,-7.862854004E-1
9.657555894E1,7.897949219E-2,1.234741211E-1,-1.870269775E-1
9.662555894E1,-3.211212158E-1,5.383300781E-2,1.579284668E-2
9.667555894E1,-8.959960938E-2,1.924896240E-1,-5.018615723E-2
9.672555894E1,4.295349121E-2,7.093811035E-2,1.061859131E-1
9.677555894E1,1.498565674E-1,-1.764526367E-1,1.025238037E-1
9.682555894E1,2.145996094E-1,-1.819610596E-1,1.202392578E-1
9.687555894E1,1.345825195E-1,-5.340576172E-4,2.521820068E-1
9.692555894E1,2.457580566E-1,1.962280273E-2,2.100372314E-1
9.697555894E1,-4.353485107E-1,1.650085449E-1,5.059814453E-2
9.702555894E1,1.321411133E-1,2.248687744E-1,-2.236785889E-1
9.707555894E1,-3.767089844E-1,2.132720947E-1,9.091186523E-2
9.712555894E1,-2.050628662E-1,-9.107360840E-1,1.239013672E-1
9.717555894E1,-9.265136719E-2,5.278625488E-1,3.837585449E-2
9.722555894E1,2.579650879E-1,1.246948242E-1,2.045288086E-1
9.727555894E1,2.237701416E-1,-2.351074219E-1,4.571533203E-2
9.732555894E1,1.486206055E-1,2.023315430E-2,-1.326446533E-1
9.737555894E1,2.683563232E-1,-3.108520508E-1,-1.418151855E-1
9.742555894E1,2.462768555E-2,-4.084777832E-2,-3.507385254E-1
9.747555894E1,-4.622344971E-1,1.222534180E-1,-4.759674072E-1
9.752555894E1,-2.606506348E-1,-5.368041992E-2,-5.431671143E-1
9.757555894E1,-3.803710938E-1,1.876068115E-1,2.796630859E-1
9.762555894E1,-1.751251221E-1,-2.748107910E-1,-6.729125977E-2
9.767555894E1,-1.531219482E-1,5.431365967E-1,6.892395020E-2
9.772555894E1,2.445373535E-1,9.780883789E-2,1.953735352E-1
9.777555894E1,4.783630371E-2,1.601257324E-1,2.509613037E-1
9.782555894E1,3.709869385E-1,-1.306457520E-1,3.651885986E-1
9.787555894E1,1.443634033E-1,2.145385742E-2,2.222595215E-1
9.792555894E1,4.534606934E-1,6.897430420E-1,2.136993408E-1
9.797555894E1,-5.819702148E-1,-8.514709473E-1,7.232666016E-3
9.802555894E1,4.143676758E-1,1.631774902E-1,6.159973145E-2
9.807555894E1,-4.408569336E-1,1.772308350E-1,5.120849609E-2
9.812555894E1,-1.971130371E-1,-4.128723145E-1,5.187988281E-4
9.817555894E1,-1.042633057E-1,2.358703613E-1,-3.430175781E-2
9.822555894E1,1.577911377E-1,-1.153717041E-1,7.136535645E-2
9.827555894E1,1.767272949E-1,-7.810974121E-2,-4.591369629E-2
9.832555894E1,7.350158691E-2,4.466247559E-2,-7.095336914E-2
9.837555894E1,2.933959961E-1,-4.831237793E-1,-1.149444580E-1
9.842555894E1,5.821228027E-2,5.290832520E-1,-1.894683838E-1
9.847555894E1,-5.257568359E-1,-4.709014893E-1,-3.605041504E-1
9.852555894E1,1.199188232E-1,-1.618041992E-1,-2.865905762E-1
9.857555894E1,-2.441558838E-1,2.175445557E-1,5.154724121E-1
9.862555894E1,-2.594299316E-1,-4.756164551E-2,2.949523926E-1
9.867555894E1,1.284790039E-1,1.779174805E-2,2.460784912E-1
9.872555894E1,2.279663086E-2,4.698333740E-1,2.747802734E-1
9.877555894E1,2.518615723E-1,-2.399902344E-1,3.260955811E-1
9.882555894E1,2.989044189E-1,1.179656982E-1,2.247009277E-1
9.887555894E1,3.160095215E-1,1.778259277E-1,-3.753662109E-3
9.892555894E1,3.147888184E-1,7.263946533E-1,1.403961182E-1
9.897555894E1,-6.033325195E-1,-4.983825684E-1,-2.514648438E-2
9.902555894E1,5.444793701E-1,1.900482178E-1,4.791259766E-3
9.907555894E1,-5.257568359E-1,1.088104248E-1,1.532135010E-1
9.912555894E1,-3.096008301E-2,-3.120727539E-1,1.031341553E-1
9.917555894E1,-5.310058594E-3,3.207855225E-1,1.697235107E-1
9.922555894E1,1.651306152E-1,-2.057800293E-1,2.216339111E-1
9.927555894E1,6.311035156E-2,-3.718566895E-2,1.335144043E-2
9.932555894E1,-3.767395020E-2,-2.662506104E-1,-7.217407227E-2
9.937555894E1,-1.141357422E-2,5.871582031E-2,-1.381530762E-1
