"Time (s)","Acceleration x (m/s^2)","Acceleration y (m/s^2)","Acceleration z (m/s^2)"
6.612806000E-2,1.651000977E-1,1.593612671E0,1.010249329E1
1.161280600E-1,3.828582764E-1,1.493118286E0,9.430114746E0
1.661280600E-1,-5.981445312E-2,1.560119629E0,1.053080750E1
2.161280600E-1,1.483612061E-1,1.471588135E0,1.004747009E1
2.661280600E-1,3.349914551E-1,2.024322510E0,1.023889160E1
3.161280600E-1,2.249298096E-1,1.289733887E0,1.032742310E1
3.661280600E-1,-1.196441650E-1,8.733825684E-1,9.609573364E0
4.161280600E-1,-1.387786865E-1,1.280166626E0,1.036810303E1
4.661280600E-1,9.809875488E-2,1.282546997E0,1.065763855E1
5.161280600E-1,-8.590240479E-1,1.911865234E0,8.762512207E0
5.661280600E-1,1.387786865E-1,2.574676514E0,8.913269043E0
6.161280600E-1,-7.171630859E-3,2.404785156E0,1.111227417E1
6.661280600E-1,-6.939697266E-2,1.146163940E0,1.028195190E1
7.161280600E-1,5.743408203E-2,2.538787842E0,9.664611816E0
7.661280600E-1,-2.249298096E-1,2.749359131E0,9.552154541E0
8.161280600E-1,-2.871398926E-1,2.742172241E0,9.942184448E0
8.661280600E-1,-4.833526611E-1,2.969497681E0,1.059541321E1
9.161280600E-1,9.403839111E-1,2.802001953E0,1.082273865E1
9.661280600E-1,3.589172363E-1,2.050643921E0,1.210768127E1
1.016128060E0,6.508483887E-1,8.566284180E-1,1.039202881E1
1.066128060E0,1.457229614E0,7.896270752E-1,1.195933533E1
1.116128060E0,6.771697998E-1,9.809875488E-2,9.233901978E0
1.166128060E0,9.331970215E-1,1.050445557E0,8.118850708E0
1.216128060E0,1.194015503E0,1.500305176E0,7.503890991E0
1.266128060E0,5.694885254E-1,1.617553711E0,8.609375000E0
1.316128060E0,4.498443604E-1,1.780258179E0,9.111862183E0
1.366128060E0,7.872314453E-1,1.837692261E0,1.039920044E1
1.416128060E0,6.723785400E-1,2.457427979E0,1.048774719E1
1.466128060E0,7.633056641E-1,2.280364990E0,1.153100586E1
1.516128060E0,4.977111816E-1,1.820938110E0,1.252403259E1
1.566128060E0,-3.158569336E-1,1.490722656E0,9.781860352E0
1.616128060E0,-5.216369629E-1,9.451599121E-1,1.107398987E1
1.666128060E0,2.273254395E-1,3.493499756E-1,9.492324829E0
1.716128060E0,-1.301696777E0,4.881286621E-1,8.298309326E0
1.766128060E0,-5.958099365E-1,1.060012817E0,7.874786377E0
1.816128060E0,-8.733825684E-1,8.470611572E-1,9.291336060E0
1.866128060E0,1.148529053E-1,1.062408447E0,9.480361938E0
1.916128060E0,-2.395629883E-3,1.519439697E0,9.535400391E0
1.966128060E0,3.445739746E-1,1.213165283E0,1.172483826E1
2.016128060E0,1.627044678E-1,1.268188477E0,1.267239380E1
2.066128060E0,1.787445068E0,1.052841187E0,1.024845886E1
2.116128060E0,2.632141113E-1,-1.914215088E-1,1.155255127E1
2.166128060E0,7.752685547E-1,8.375549316E-2,9.032897949E0
2.216128060E0,6.556396484E-1,1.521835327E0,8.621337891E0
2.266128060E0,1.435852051E-2,1.569686890E0,7.018142700E0
2.316128060E0,-1.196441650E-1,2.277969360E0,8.245666504E0
2.366128060E0,3.804626465E-1,2.328216553E0,9.403793335E0
2.416128060E0,3.852386475E-1,3.055633545E0,9.875183105E0
2.466128060E0,3.349914551E-1,2.813964844E0,1.258146667E1
2.516128060E0,-2.440643311E-1,2.644073486E0,1.177748108E1
2.566128060E0,4.019927979E-1,1.526626587E0,1.216032410E1
2.616128060E0,-3.134613037E-1,6.364898682E-1,1.006420898E1
2.666128060E0,1.914215088E-1,8.087768555E-1,9.360717773E0
2.716128060E0,2.632141113E-1,1.301696777E0,7.444076538E0
2.766128060E0,-4.689941406E-1,1.519439697E0,8.281555176E0
2.816128060E0,2.751770020E-1,2.141571045E0,7.903488159E0
2.866128060E0,1.148529053E-1,1.859222412E0,9.434906006E0
2.916128060E0,1.244201660E-1,1.710861206E0,1.052603149E1
2.966128060E0,-3.325958252E-1,1.402191162E0,1.190907288E1
3.016128060E0,-1.459655762E-1,1.962112427E0,1.164347839E1
3.066128060E0,1.399795532E0,1.548156738E0,1.276332092E1
3.116128060E0,-3.589172363E-1,7.800598145E-1,9.511474609E0
3.166128060E0,3.924255371E-1,1.055236816E0,9.018554688E0
3.216128060E0,-3.493499756E-1,1.356735229E0,8.233703613E0
3.266128060E0,-8.039855957E-1,1.871185303E0,7.183258057E0
3.316128060E0,-2.560272217E-1,2.009963989E0,8.260025024E0
3.366128060E0,7.322082520E-1,2.246856689E0,9.458831787E0
3.416128060E0,4.737854004E-1,2.445465088E0,1.194975281E1
3.466128060E0,-8.135986328E-2,2.222930908E0,1.330169678E1
3.516128060E0,7.728881836E-1,1.500305176E0,1.107159424E1
3.566128060E0,-1.387832642E0,-5.024719238E-2,1.344766235E1
3.616128060E0,-4.881286621E-1,1.435699463E-1,9.640686035E0
3.666128060E0,-2.871398926E-1,7.872314453E-1,7.257431030E0
3.716128060E0,-1.062408447E0,9.738769531E-1,8.063812256E0
3.766128060E0,-2.201385498E-1,1.689331055E0,7.625930786E0
3.816128060E0,-7.346038818E-1,1.753936768E0,8.312667847E0
3.866128060E0,-5.981445312E-2,1.828109741E0,1.005224609E1
3.916128060E0,-1.196289062E-2,1.098312378E0,1.252403259E1
3.966128060E0,-1.579284668E-1,1.390228271E0,1.316531372E1
4.016128060E0,3.588867188E-2,6.699829102E-1,1.316291809E1
4.066128060E0,7.171630859E-3,-1.435852051E-2,1.189233398E1
4.116128060E0,1.308868408E0,6.580200195E-1,7.161712646E0
4.166128060E0,2.751770020E-1,4.211425781E-1,8.671585083E0
4.216128060E0,1.674957275E-1,9.331970215E-1,6.541976929E0
4.266128060E0,-3.278198242E-1,1.689331055E0,8.059020996E0
4.316128060E0,4.355010986E-1,2.105682373E0,9.305694580E0
4.366128060E0,5.407714844E-1,2.443069458E0,1.124388123E1
4.416128060E0,2.416687012E-1,1.873580933E0,1.391665649E1
4.466128060E0,-4.857482910E-1,2.593826294E0,1.080598450E1
4.516128060E0,-7.369842529E-1,1.371093750E0,1.285664368E1
4.566128060E0,-4.785156250E-2,1.507415771E-1,1.079641724E1
4.616128060E0,-2.871398926E-1,4.115600586E-1,7.927429199E0
4.666128060E0,3.995971680E-1,8.685913086E-1,7.082748413E0
4.716128060E0,2.632141113E-2,1.347152710E0,7.776672363E0
4.766128060E0,-1.698913574E-1,1.485946655E0,7.671386719E0
4.816128060E0,-3.373870850E-1,1.820938110E0,9.351150513E0
4.866128060E0,4.067993164E-2,1.418945312E0,1.066001892E1
4.916128060E0,3.254241943E-1,1.158126831E0,1.356970215E1
4.966128060E0,1.002593994E0,1.253845215E0,1.101416016E1
5.016128060E0,-4.259185791E-1,6.340942383E-1,1.439044189E1
5.066128060E0,1.210769653E0,3.302154541E-1,9.188446045E0
5.116128060E0,7.728881836E-1,3.804626465E-1,8.530410767E0
5.166128060E0,-1.387786865E-1,1.222732544E0,6.783645630E0
5.216128060E0,-5.312042236E-1,1.495513916E0,6.350555420E0
5.266128060E0,7.656860352E-2,1.868789673E0,9.085556030E0
5.316128060E0,4.594268799E-1,2.232498169E0,1.049971008E1
5.366128060E0,4.067840576E-1,2.112869263E0,1.261975098E1
5.416128060E0,1.052856445E-1,2.067398071E0,1.332084656E1
5.466128060E0,-2.153015137E-2,2.134399414E0,1.102612305E1
5.516128060E0,-1.093521118E0,4.378814697E-1,1.254078674E1
5.566128060E0,-3.684997559E-1,-1.675415039E-2,9.650253296E0
5.616128060E0,-1.292114258E-1,4.307098389E-1,7.726425171E0
5.666128060E0,4.953155518E-1,1.012161255E0,6.592224121E0
5.716128060E0,-4.355010986E-1,1.287338257E0,7.635498047E0
5.766128060E0,-4.547119141E-2,1.820938110E0,6.946365356E0
5.816128060E0,-2.440643311E-1,1.550552368E0,1.006660461E1
5.866128060E0,1.986083984E-1,1.368698120E0,1.072702026E1
5.916128060E0,-2.895355225E-1,6.029968262E-1,1.416311646E1
5.966128060E0,9.810638428E-1,1.502685547E0,1.052603149E1
6.016128060E0,-5.024871826E-1,4.043884277E-1,1.357926941E1
6.066128060E0,6.843414307E-1,-3.613128662E-1,1.049971008E1
6.116128060E0,1.366302490E0,6.149597168E-1,1.031066895E1
6.166128060E0,-1.914215088E-1,8.327026367E-1,7.097106934E0
6.216128060E0,-3.732757568E-1,1.471588135E0,6.766906738E0
6.266128060E0,3.373870850E-1,1.725219727E0,9.164505005E0
6.316128060E0,6.819610596E-1,1.610366821E0,1.102134705E1
6.366128060E0,5.623168945E-1,1.505081177E0,1.233261108E1
6.416128060E0,5.503540039E-1,1.402191162E0,1.243310547E1
6.466128060E0,1.476364136E0,4.283142090E-1,1.206222534E1
6.516128060E0,-2.177429199E-1,-2.297058105E-1,1.183969116E1
6.566128060E0,2.488555908E-1,4.547119141E-2,8.707489014E0
6.616128060E0,-3.397827148E-1,3.661041260E-1,7.322036743E0
6.666128060E0,-6.029968262E-1,8.805541992E-1,6.965499878E0
6.716128060E0,-6.460571289E-1,1.529006958E0,7.582855225E0
6.766128060E0,2.751770020E-1,1.959716797E0,9.202789307E0
6.816128060E0,2.608184814E-1,1.684539795E0,1.116729736E1
6.866128060E0,4.881286621E-1,1.361511230E0,1.150947571E1
6.916128060E0,-2.392883301E-1,1.256225586E0,1.218664551E1
6.966128060E0,1.672576904E0,6.699829102E-1,1.247138977E1
7.016128060E0,-5.862426758E-1,1.316070557E-1,1.211964417E1
7.066128060E0,1.435699463E0,6.436767578E-1,8.226531982E0
7.116128060E0,1.481155396E0,1.043273926E0,8.628524780E0
7.166128060E0,1.004943848E-1,1.002593994E0,7.393829346E0
7.216128060E0,4.547119141E-2,1.557723999E0,7.412963867E0
7.266128060E0,1.627044678E-1,1.677368164E0,8.346160889E0
7.316128060E0,3.182525635E-1,2.304290771E0,1.033699036E1
7.366128060E0,2.105712891E-1,1.734802246E0,1.238285828E1
7.416128060E0,-1.938171387E-1,2.464614868E0,1.236610413E1
7.466128060E0,6.915283203E-1,7.537384033E-1,1.310787964E1
7.516128060E0,-9.930267334E-1,-3.924255371E-1,1.180618286E1
7.566128060E0,-3.373870850E-1,1.052856445E-1,9.454040527E0
7.616128060E0,6.939697266E-2,2.225341797E-1,6.807586670E0
7.666128060E0,-1.172485352E-1,1.375869751E0,7.642669678E0
7.716128060E0,-7.896423340E-2,1.210769653E0,7.901107788E0
7.766128060E0,5.335998535E-1,1.988433838E0,9.358322144E0
7.816128060E0,4.283142090E-1,1.289733887E0,1.082991028E1
7.866128060E0,6.316986084E-1,1.055236816E0,1.229910278E1
7.916128060E0,2.656097412E-1,5.551300049E-1,1.110508728E1
7.966128060E0,-5.335998535E-1,5.575256348E-1,1.289970398E1
8.016128060E0,1.651000977E-1,1.603240967E-1,9.717254639E0
8.066128060E0,1.916656494E0,6.747741699E-1,8.140380859E0
8.116128060E0,-9.332275391E-2,5.623168945E-1,8.372482300E0
8.166128060E0,-2.560272217E-1,1.234695435E0,7.207183838E0
8.216128060E0,-3.158569336E-1,1.509872437E0,8.535202026E0
8.266128060E0,6.508483887E-1,2.347366333E0,9.736389160E0
8.316128060E0,3.900299072E-1,1.555328369E0,1.124626160E1
8.366128060E0,7.322082520E-1,1.043273926E0,1.318206787E1
8.416128060E0,3.924255371E-1,1.146163940E0,1.114097595E1
8.466128060E0,1.675415039E-2,-3.732757568E-1,1.462731934E1
8.516128060E0,1.483612061E-1,-1.746826172E-1,8.537597656E0
8.566128060E0,1.555328369E-1,1.411743164E-1,8.248062134E0
8.616128060E0,2.536315918E-1,8.159484863E-1,7.826919556E0
8.666128060E0,4.091796875E-1,1.521835327E0,8.169097900E0
8.716128060E0,2.656097412E-1,1.533798218E0,8.360519409E0
8.766128060E0,1.531372070E-1,1.462020874E0,9.626327515E0
8.816128060E0,3.780670166E-1,8.733825684E-1,1.113380432E1
8.866128060E0,5.264282227E-1,4.618072510E-1,1.306959534E1
8.916128060E0,9.044799805E-1,2.105712891E-1,1.048295593E1
8.966128060E0,-1.698913574E-1,-2.297058105E-1,1.441914368E1
9.016128060E0,1.469192505E0,2.105712891E-1,8.537597656E0
9.066128060E0,1.655838013E0,5.575256348E-1,9.049652100E0
9.116128060E0,-6.939697266E-2,1.002593994E0,6.491729736E0
9.166128060E0,-1.033706665E0,1.112655640E0,6.604187012E0
9.216128060E0,-2.201385498E-1,2.065002441E0,9.310470581E0
9.266128060E0,3.421783447E-1,2.254043579E0,1.062652588E1
9.316128060E0,4.331054688E-1,1.782653809E0,1.304087830E1
9.366128060E0,5.048828125E-1,1.880752563E0,1.279920959E1
9.416128060E0,1.371093750E0,2.703857422E-1,1.282073975E1
9.466128060E0,-1.196441650E-1,-2.656097412E-1,1.101176453E1
9.516128060E0,-2.775726318E-1,-1.531372070E-1,8.374877930E0
9.566128060E0,5.168457031E-1,1.507415771E-1,7.310073853E0
9.616128060E0,1.387786865E-1,8.685913086E-1,7.022933960E0
9.666128060E0,-4.402770996E-1,1.007385254E0,7.752746582E0
9.716128060E0,-1.579284668E-1,1.768295288E0,8.642868042E0
9.766128060E0,1.938171387E-1,1.368698120E0,1.047578430E1
9.816128060E0,8.590240479E-1,8.087768555E-1,1.284466553E1
9.866128060E0,1.459655762E-1,1.179656982E0,1.265324402E1
9.916128060E0,8.231353760E-1,4.283142090E-1,1.307199097E1
9.966128060E0,7.417297363E-2,-7.298126221E-1,1.176550293E1
1.001612806E1,1.823333740E0,1.627044678E-1,8.245666504E0
1.006612806E1,9.212341309E-1,8.279113770E-1,8.451446533E0
1.011612806E1,-3.995971680E-1,8.422698975E-1,5.706878662E0
1.016612806E1,-5.862426758E-1,1.160522461E0,7.482360840E0
1.021612806E1,2.249298096E-1,1.947753906E0,9.281753540E0
1.026612806E1,5.024871826E-1,2.024322510E0,1.141615295E1
1.031612806E1,5.862426758E-1,1.629516602E0,1.352423096E1
1.036612806E1,6.221008301E-2,2.165512085E0,1.136351013E1
1.041612806E1,2.823486328E-1,-6.221008301E-2,1.450769043E1
1.046612806E1,2.392578125E-2,-6.197357178E-1,1.047099304E1
1.051612806E1,3.373870850E-1,-3.230285645E-1,7.735992432E0
1.056612806E1,6.939697266E-2,7.656860352E-2,7.357925415E0
1.061612806E1,-7.656860352E-2,8.925170898E-1,7.240676880E0
1.066612806E1,-2.656097412E-1,1.337585449E0,6.955932617E0
1.071612806E1,1.172485352E-1,1.332809448E0,9.233901978E0
1.076612806E1,7.489471436E-1,7.920227051E-1,1.127258301E1
1.081612806E1,2.967071533E-1,9.332275391E-2,1.384248352E1
1.086612806E1,9.954071045E-1,2.297058105E-1,1.145683289E1
1.091612806E1,-2.608184814E-1,-4.163513184E-1,1.452204895E1
1.096612806E1,1.452438354E0,-5.766754150E-1,8.114059448E0
1.101612806E1,2.210968018E0,-7.171630859E-3,1.016471863E1
1.106612806E1,-1.531372070E-1,3.278198242E-1,6.982254028E0
1.111612806E1,-9.786682129E-1,1.040878296E0,7.482360840E0
1.116612806E1,3.421783447E-1,1.536193848E0,8.504089355E0
1.121612806E1,3.254241943E-1,1.476364136E0,1.049491882E1
1.126612806E1,6.125640869E-1,9.379882812E-1,1.285424805E1
1.131612806E1,5.431671143E-1,8.135528564E-1,1.302174377E1
1.136612806E1,8.303070068E-1,-1.507415771E-1,1.143530273E1
1.141612806E1,-1.674957275E-1,-5.001068115E-1,1.295953369E1
1.146612806E1,2.727813721E-1,-6.628112793E-1,8.413162231E0
1.151612806E1,-1.746826172E-1,-3.325958252E-1,8.571090698E0
1.156612806E1,2.895355225E-1,6.101684570E-1,6.599411011E0
1.161612806E1,-2.871398926E-1,1.160522461E0,7.788635254E0
1.166612806E1,1.603240967E-1,1.253845215E0,8.767303467E0
1.171612806E1,3.661041260E-1,1.127014160E0,1.106919861E1
1.176612806E1,7.704925537E-1,7.369842529E-1,1.226081848E1
1.181612806E1,6.963043213E-1,1.083953857E0,1.281356812E1
1.186612806E1,1.703689575E0,6.628112793E-1,1.118644714E1
1.191612806E1,2.799530029E-1,-7.202453613E-1,1.170808411E1
1.196612806E1,1.347152710E0,-3.302154541E-1,8.300704956E0
1.201612806E1,6.149597168E-1,8.661956787E-1,8.690734863E0
1.206612806E1,1.292114258E-1,1.567306519E0,5.568099976E0
1.211612806E1,-2.751770020E-1,1.964508057E0,7.393829346E0
1.216612806E1,3.828582764E-1,2.122436523E0,9.525833130E0
1.221612806E1,2.871398926E-1,2.098510742E0,1.175833130E1
1.226612806E1,5.551300049E-1,1.505081177E0,1.363908386E1
1.231612806E1,-1.004943848E-1,1.770690918E0,1.085145569E1
1.236612806E1,-1.794586182E-1,3.852386475E-1,1.385444641E1
1.241612806E1,-9.332275391E-2,-3.302154541E-1,8.367706299E0
1.246612806E1,-7.896423340E-2,-4.450683594E-1,1.118405151E1
1.251612806E1,4.905242920E-1,6.556396484E-1,8.102096558E0
1.256612806E1,-1.076812744E-1,1.325622559E0,7.015762329E0
1.261612806E1,-4.594268799E-1,1.481155396E0,7.168899536E0
1.266612806E1,-5.144500732E-1,1.323226929E0,8.456237793E0
1.271612806E1,-4.043884277E-1,8.422698975E-1,1.141854858E1
1.276612806E1,4.402770996E-1,2.584228516E-1,1.321316528E1
1.281612806E1,7.154541016E-1,6.053771973E-1,1.101176453E1
1.286612806E1,-4.474639893E-1,7.177734375E-2,1.457707214E1
1.291612806E1,7.920227051E-1,-4.378814697E-1,9.757934570E0
1.296612806E1,1.316055298E0,4.474639893E-1,9.102294922E0
1.301612806E1,2.392883301E-1,1.217941284E0,6.664016724E0
1.306612806E1,-2.919311523E-1,1.627120972E0,6.678375244E0
1.311612806E1,-3.086700439E-1,1.629516602E0,8.693130493E0
1.316612806E1,2.392883301E-1,1.868789673E0,1.017428589E1
1.321612806E1,2.847442627E-1,1.502685547E0,1.262452698E1
1.326612806E1,3.661041260E-1,1.502685547E0,1.315095520E1
1.331612806E1,4.474639893E-1,1.622329712E0,1.110269165E1
1.336612806E1,-7.346038818E-1,2.321014404E-1,1.240917969E1
1.341612806E1,-4.737854004E-1,-5.503845215E-2,9.841674805E0
1.346612806E1,1.842498779E-1,8.853149414E-2,9.291336060E0
1.351612806E1,1.674957275E-1,9.978027344E-1,7.326828003E0
1.356612806E1,-5.527496338E-1,1.531402588E0,6.494125366E0
1.361612806E1,-3.589172363E-1,2.057830811E0,7.613967896E0
1.366612806E1,-1.100769043E-1,2.218139648E0,9.439682007E0
1.371612806E1,9.571838379E-2,1.205978394E0,1.105963135E1
1.376612806E1,-1.507415771E-1,9.523468018E-1,1.118405151E1
1.381612806E1,1.452438354E0,-2.584228516E-1,1.474456787E1
1.386612806E1,3.230285645E-1,-8.853454590E-1,1.462731934E1
1.391612806E1,1.435699463E0,5.599212646E-1,1.009053040E1
1.396612806E1,1.282546997E0,1.299301147E0,7.341186523E0
1.401612806E1,-1.172485352E-1,1.569686890E0,5.694915771E0
1.406612806E1,-4.905242920E-1,1.849655151E0,6.723831177E0
1.411612806E1,-1.603240967E-1,1.919036865E0,8.425125122E0
1.416612806E1,5.024719238E-2,2.359329224E0,9.978073120E0
1.421612806E1,5.981445312E-2,1.986038208E0,1.261256409E1
1.426612806E1,4.355010986E-1,1.878372192E0,1.340458679E1
1.431612806E1,2.201385498E-1,7.274169922E-1,1.367976379E1
1.436612806E1,-9.978027344E-1,-3.804626465E-1,1.082034302E1
1.441612806E1,-2.249298096E-1,-1.746826172E-1,8.224136353E0
1.446612806E1,-1.268157959E-1,3.780670166E-1,9.054443359E0
1.451612806E1,-1.651000977E-1,8.661956787E-1,7.094726562E0
1.456612806E1,-4.307098389E-1,1.328018188E0,7.963317871E0
1.461612806E1,4.785614014E-1,1.579269409E0,8.274383545E0
1.466612806E1,-3.134613037E-1,7.824554443E-1,1.005703735E1
1.471612806E1,5.503845215E-2,4.713897705E-1,1.218664551E1
1.476612806E1,3.086700439E-1,1.241882324E0,1.186361694E1
1.481612806E1,7.513427734E-1,6.747741699E-1,1.272264099E1
1.486612806E1,4.618072510E-1,-6.652069092E-1,1.205743408E1
1.491612806E1,1.957336426E0,-6.221008301E-2,8.102096558E0
1.496612806E1,6.125640869E-1,5.431671143E-1,8.858230591E0
1.501612806E1,-3.780670166E-1,8.566284180E-1,6.396011353E0
1.506612806E1,-5.623168945E-1,1.361511230E0,7.965713501E0
1.511612806E1,1.196289062E-2,1.739578247E0,9.332015991E0
1.516612806E1,7.346038818E-1,1.763504028E0,1.186601257E1
1.521612806E1,7.728881836E-1,1.091125488E0,1.427319336E1
1.526612806E1,-1.100769043E-1,1.433303833E0,1.086102295E1
1.531612806E1,-6.125640869E-1,2.536315918E-1,1.405065918E1
1.536612806E1,-4.713897705E-1,-5.575256348E-1,1.041355896E1
1.541612806E1,-2.225341797E-1,8.613586426E-2,8.209777832E0
1.546612806E1,3.038940430E-1,6.604156494E-1,6.970291138E0
1.551612806E1,2.632141113E-1,1.160522461E0,6.479766846E0
1.556612806E1,-3.421783447E-1,1.131805420E0,7.288543701E0
1.561612806E1,1.603240967E-1,8.614196777E-1,9.647857666E0
1.566612806E1,7.465667725E-1,8.135986328E-2,1.234936523E1
1.571612806E1,6.149597168E-1,2.201385498E-1,1.367976379E1
1.576612806E1,1.442871094E0,-2.395629883E-3,1.143769836E1
1.581612806E1,-1.076812744E-1,-8.685913086E-1,1.434017944E1
1.586612806E1,8.398742676E-1,-4.163513184E-1,8.353347778E0
1.591612806E1,7.154541016E-1,4.977111816E-1,8.941986084E0
1.596612806E1,1.770629883E-1,9.882354736E-1,5.714065552E0
1.601612806E1,-5.742797852E-1,1.268188477E0,7.470397949E0
1.606612806E1,4.211425781E-1,1.605590820E0,8.913269043E0
1.611612806E1,8.087768555E-1,1.493118286E0,1.173200989E1
1.616612806E1,8.015899658E-1,1.316055298E0,1.326101685E1
1.621612806E1,3.134613037E-1,1.727615356E0,1.255514526E1
1.626612806E1,2.967071533E-1,-4.307098389E-1,1.440478516E1
1.631612806E1,1.435699463E-1,6.939697266E-2,9.652648926E0
1.636612806E1,4.043884277E-1,-4.785614014E-1,7.628311157E0
1.641612806E1,0.000000000E0,2.608184814E-1,8.331802368E0
1.646612806E1,-2.344970703E-1,8.135528564E-1,6.376876831E0
1.651612806E1,-1.004943848E-1,1.371093750E0,7.898712158E0
1.656612806E1,-1.363983154E-1,1.270584106E0,8.350952148E0
1.661612806E1,8.494567871E-1,9.284210205E-1,1.116252136E1
1.666612806E1,1.019348145E0,-1.914978027E-2,1.380659485E1
1.671612806E1,1.136596680E0,5.503540039E-1,1.202632141E1
1.676612806E1,5.288085938E-1,-4.307556152E-2,1.388793945E1
1.681612806E1,3.373870850E-1,-8.757781982E-1,9.956542969E0
1.686612806E1,1.330413818E0,-8.613586426E-2,8.482559204E0
1.691612806E1,-7.920227051E-1,7.441711426E-1,7.207183838E0
1.696612806E1,-5.647125244E-1,1.636688232E0,5.989242554E0
1.701612806E1,-4.067993164E-2,2.086547852E0,8.288742065E0
1.706612806E1,5.981445312E-2,1.825729370E0,1.034895325E1
1.711612806E1,4.665985107E-1,1.215560913E0,1.272503662E1
1.716612806E1,5.814514160E-1,8.422698975E-1,1.340937805E1
1.721612806E1,1.634292603E0,-2.392883301E-1,1.221775818E1
1.726612806E1,-1.579284668E-1,-6.436767578E-1,1.256950378E1
1.731612806E1,2.153472900E-1,-5.383911133E-1,7.858032227E0
1.736612806E1,3.349304199E-2,-1.220397949E-1,8.446670532E0
1.741612806E1,1.196441650E-1,5.407714844E-1,7.190429688E0
1.746612806E1,1.340026855E-1,1.091125488E0,7.788635254E0
1.751612806E1,1.914978027E-2,6.101684570E-1,8.444274902E0
1.756612806E1,6.676025391E-1,6.963043213E-1,1.070069885E1
1.761612806E1,9.475555420E-1,3.661041260E-1,1.223928833E1
1.766612806E1,3.828430176E-2,4.857482910E-1,1.137786865E1
1.771612806E1,9.595184326E-1,1.674957275E-1,1.305046082E1
1.776612806E1,-6.436767578E-1,-6.508483887E-1,1.341416931E1
1.781612806E1,1.387832642E0,2.297058105E-1,7.810180664E0
1.786612806E1,9.355926514E-1,8.877410889E-1,8.054244995E0
1.791612806E1,2.392578125E-2,9.212341309E-1,6.778869629E0
1.796612806E1,1.268157959E-1,1.083953857E0,8.075775146E0
1.801612806E1,7.346038818E-1,1.143768311E0,1.021734619E1
1.806612806E1,1.021728516E0,9.978027344E-1,1.145922852E1
1.811612806E1,1.158126831E0,7.393798828E-1,1.266760254E1
1.816612806E1,2.991027832E-1,1.205978394E0,1.085145569E1
1.821612806E1,1.986083984E-1,-2.344970703E-1,1.391905212E1
1.826612806E1,-1.914978027E-2,-6.795654297E-1,9.226730347E0
1.831612806E1,3.278198242E-1,-5.766754150E-1,9.585647583E0
1.836612806E1,-9.567260742E-3,9.571838379E-2,8.185852051E0
1.841612806E1,-3.588867188E-2,5.862426758E-1,6.537185669E0
1.846612806E1,2.488555908E-1,1.064804077E0,7.537399292E0
1.851612806E1,1.124572754E-1,5.264282227E-1,9.477966309E0
1.856612806E1,7.561340332E-1,2.081756592E-1,1.165783691E1
1.861612806E1,9.595184326E-1,-2.703857422E-1,1.340220642E1
1.866612806E1,2.141571045E0,5.120697021E-1,1.082273865E1
1.871612806E1,5.718841553E-1,-5.335998535E-1,1.521595764E1
1.876612806E1,6.771697998E-1,-6.723785400E-1,8.800796509E0
1.881612806E1,1.383056641E0,-3.111267090E-2,9.123840332E0
1.886612806E1,4.737854004E-1,8.781585693E-1,6.541976929E0
1.891612806E1,1.675415039E-2,1.301696777E0,6.340972900E0
1.896612806E1,3.732757568E-1,1.406982422E0,8.525634766E0
1.901612806E1,1.043273926E0,1.105484009E0,1.103808594E1
1.906612806E1,8.661956787E-1,9.164581299E-1,1.308395386E1
1.911612806E1,1.036087036E0,1.351943970E0,1.226560974E1
1.916612806E1,1.667800903E0,9.116668701E-1,1.168893433E1
1.921612806E1,-3.924255371E-1,-1.938171387E-1,1.200239563E1
1.926612806E1,-9.331970215E-1,-6.628112793E-1,9.506683350E0
1.931612806E1,-7.704925537E-1,-1.340026855E-1,8.824737549E0
1.936612806E1,-1.196441650E-1,5.431671143E-1,7.006179810E0
1.941612806E1,-2.392578125E-2,1.316055298E0,6.934402466E0
1.946612806E1,1.093521118E0,1.813766479E0,8.145172119E0
1.951612806E1,8.757781982E-1,9.978027344E-1,1.105723572E1
1.956612806E1,1.117446899E0,7.848510742E-1,1.202154541E1
1.961612806E1,-3.588867188E-2,1.500305176E0,1.098066711E1
1.966612806E1,9.260253906E-1,3.995971680E-1,1.461297607E1
1.971612806E1,-7.417755127E-1,-9.140625000E-1,1.160758972E1
1.976612806E1,1.265808105E0,1.507415771E-1,7.908279419E0
1.981612806E1,5.742797852E-1,1.473983765E0,7.209579468E0
1.986612806E1,-4.761657715E-1,1.342376709E0,5.862411499E0
1.991612806E1,-1.021728516E0,1.473983765E0,8.544769287E0
1.996612806E1,-3.445739746E-1,1.744369507E0,9.834503174E0
2.001612806E1,-8.661956787E-1,1.533798218E0,1.303370667E1
2.006612806E1,-2.703857422E-1,8.805541992E-1,1.302891541E1
2.011612806E1,-3.900299072E-1,9.331970215E-1,1.166979980E1
2.016612806E1,-1.332809448E0,-3.780670166E-1,1.326101685E1
2.021612806E1,-4.426727295E-1,-2.081756592E-1,9.097518921E0
2.026612806E1,-2.297058105E-1,1.076812744E-1,8.736190796E0
2.031612806E1,-4.067993164E-2,6.436767578E-1,6.927215576E0
2.036612806E1,-4.019927979E-1,1.418945312E0,6.034698486E0
2.041612806E1,-6.388854980E-1,1.440475464E0,7.843673706E0
2.046612806E1,6.460571289E-2,1.225128174E0,1.066481018E1
2.051612806E1,3.708801270E-1,1.986083984E-1,1.416551208E1
2.056612806E1,-4.259185791E-1,3.828582764E-1,1.388316345E1
2.061612806E1,1.421340942E0,9.188385010E-1,1.099502563E1
2.066612806E1,-8.135528564E-1,8.853149414E-2,1.298585510E1
2.071612806E1,3.230285645E-1,-1.316070557E-1,9.116653442E0
2.076612806E1,3.445739746E-1,1.531372070E-1,9.001800537E0
2.081612806E1,1.914215088E-1,1.213165283E0,5.752349854E0
2.086612806E1,-4.929199219E-1,1.622329712E0,5.484344482E0
2.091612806E1,1.268157959E-1,1.720443726E0,7.738388062E0
2.096612806E1,5.814514160E-1,1.610366821E0,1.123908997E1
2.101612806E1,1.593612671E0,1.890335083E0,1.351466370E1
2.106612806E1,5.312042236E-1,1.055236816E0,1.367498779E1
2.111612806E1,1.272979736E0,5.551300049E-1,1.148794556E1
2.116612806E1,-4.187469482E-1,-6.508483887E-1,1.252642822E1
2.121612806E1,1.052856445E-1,-1.220397949E-1,9.016159058E0
2.126612806E1,-3.924255371E-1,2.703857422E-1,8.389236450E0
2.131612806E1,-1.292114258E-1,6.795654297E-1,6.522827148E0
2.136612806E1,-2.919311523E-1,1.115051270E0,7.063613892E0
2.141612806E1,-1.651000977E-1,7.896270752E-1,8.130813599E0
2.146612806E1,5.144500732E-1,1.222732544E0,1.173680115E1
2.151612806E1,3.373870850E-1,4.091796875E-1,1.214118958E1
2.156612806E1,-2.392578125E-2,1.363906860E0,1.191146851E1
2.161612806E1,5.647125244E-1,6.604156494E-1,1.301934814E1
2.166612806E1,-2.010040283E-1,-3.565368652E-1,1.221057129E1
2.171612806E1,1.071990967E0,5.862426758E-1,1.067437744E1
2.176612806E1,1.531372070E-1,1.186843872E0,6.711868286E0
2.181612806E1,-7.465667725E-1,1.380661011E0,5.151748657E0
2.186612806E1,-1.340026855E-1,1.545761108E0,7.652252197E0
2.191612806E1,9.403839111E-1,1.538589478E0,1.080120850E1
2.196612806E1,7.322082520E-1,1.636688232E0,1.163868713E1
2.201612806E1,3.086700439E-1,1.282546997E0,1.367019653E1
2.206612806E1,-3.469543457E-1,1.332809448E0,1.143290710E1
2.211612806E1,-3.684997559E-1,-4.791259766E-3,1.339501953E1
2.216612806E1,1.818542480E-1,-2.895355225E-1,1.021017456E1
2.221612806E1,-1.627044678E-1,-2.057800293E-1,8.118850708E0
2.226612806E1,-5.575256348E-1,5.383911133E-1,7.245468140E0
2.231612806E1,-4.737854004E-1,9.236297607E-1,6.656829834E0
2.236612806E1,1.794586182E-1,1.993225098E0,7.838882446E0
2.241612806E1,-2.081756592E-1,1.421340942E0,9.745971680E0
2.246612806E1,4.713897705E-1,1.213165283E0,1.157647705E1
2.251612806E1,5.790557861E-1,4.737854004E-1,1.285902405E1
2.256612806E1,2.079360962E0,-5.359954834E-1,1.400758362E1
2.261612806E1,-1.244262695E0,-6.771697998E-1,1.335673523E1
2.266612806E1,1.320831299E0,4.235229492E-1,9.183654785E0
2.271612806E1,2.378463745E0,1.782653809E0,7.513458252E0
2.276612806E1,2.297058105E-1,1.579269409E0,6.573089600E0
2.281612806E1,-7.465667725E-1,1.574478149E0,6.637695312E0
2.286612806E1,-3.684997559E-1,1.854431152E0,8.542373657E0
2.291612806E1,-3.517456055E-1,1.703689575E0,1.030589294E1
2.296612806E1,1.172485352E-1,1.227523804E0,1.232064819E1
2.301612806E1,7.106628418E-1,1.481155396E0,1.271067810E1
2.306612806E1,1.016952515E0,-3.445739746E-1,1.512982178E1
2.311612806E1,-6.197357178E-1,-7.585296631E-1,1.104048157E1
2.316612806E1,-9.809875488E-2,2.967071533E-1,6.008377075E0
2.321612806E1,-1.292114258E-1,1.002593994E0,7.063613892E0
2.326612806E1,-1.627044678E-1,8.327026367E-1,7.611572266E0
2.331612806E1,2.799530029E-1,1.311264038E0,9.040084839E0
2.336612806E1,3.373870850E-1,1.203582764E0,9.920639038E0
2.341612806E1,8.327026367E-1,6.699829102E-1,1.139941406E1
2.346612806E1,-3.110656738E-1,3.637084961E-1,1.095912170E1
2.351612806E1,-4.067993164E-2,6.412811279E-1,1.066960144E1
2.356612806E1,-8.613586426E-2,-7.657012939E-1,1.636451721E1
2.361612806E1,1.150955200E0,-6.125640869E-1,9.786651611E0
2.366612806E1,1.641479492E0,3.062744141E-1,8.286346436E0
2.371612806E1,2.416687012E-1,3.517456055E-1,6.879364014E0
2.376612806E1,1.196441650E-1,1.093521118E0,7.027725220E0
2.381612806E1,-3.613128662E-1,1.225128174E0,8.236099243E0
2.386612806E1,1.040878296E0,1.653442383E0,1.063131714E1
2.391612806E1,1.122238159E0,1.196411133E0,1.260539246E1
2.396612806E1,1.428512573E0,1.194015503E0,1.270349121E1
2.401612806E1,6.986999512E-1,2.632141113E-2,1.144966125E1
2.406612806E1,1.746826172E-1,-2.177429199E-1,1.174157715E1
2.411612806E1,1.093521118E0,5.024719238E-2,8.874984741E0
2.416612806E1,5.862426758E-1,1.938171387E-1,9.635894775E0
2.421612806E1,4.355010986E-1,5.647125244E-1,7.221542358E0
2.426612806E1,-7.171630859E-3,9.690856934E-1,7.123428345E0
2.431612806E1,1.148529053E-1,6.556396484E-1,8.066207886E0
2.436612806E1,4.881286621E-1,4.833526611E-1,1.114097595E1
2.441612806E1,1.064804077E0,-4.474639893E-1,1.248814392E1
2.446612806E1,6.053771973E-1,6.484527588E-1,1.227996826E1
2.451612806E1,9.858398438E-1,-3.900299072E-1,1.225604248E1
2.456612806E1,-7.417297363E-2,-7.609100342E-1,1.273460388E1
2.461612806E1,1.648651123E0,-2.201385498E-1,7.688140869E0
2.466612806E1,4.139556885E-1,7.704925537E-1,8.367706299E0
2.471612806E1,1.172485352E-1,1.057632446E0,5.663818359E0
2.476612806E1,-2.249298096E-1,1.316055298E0,8.073379517E0
2.481612806E1,5.001068115E-1,9.020996094E-1,1.023170471E1
2.486612806E1,9.930267334E-1,1.249053955E0,1.274177551E1
2.491612806E1,1.435699463E0,4.450683594E-1,1.365104675E1
2.496612806E1,6.604156494E-1,1.765899658E0,1.023889160E1
2.501612806E1,1.986083984E-1,4.905242920E-1,1.200718689E1
2.506612806E1,-1.938171387E-1,-6.891326904E-1,1.132522583E1
2.511612806E1,4.809570312E-1,-2.943115234E-1,8.233703613E0
2.516612806E1,2.488555908E-1,1.866455078E-1,8.922836304E0
2.521612806E1,-1.722869873E-1,2.081756592E-1,6.900894165E0
2.526612806E1,3.445739746E-1,1.395019531E0,6.733398438E0
2.531612806E1,4.067840576E-1,8.327026367E-1,8.717056274E0
2.536612806E1,5.527496338E-1,2.799530029E-1,1.136590576E1
2.541612806E1,2.033843994E-1,-1.746826172E-1,1.334956360E1
2.546612806E1,1.127014160E0,5.455627441E-1,1.182772827E1
2.551612806E1,1.067199707E0,5.694885254E-1,1.324427795E1
2.556612806E1,8.398742676E-1,-6.604156494E-1,9.576080322E0
2.561612806E1,4.259185791E-1,-2.368927002E-1,1.104048157E1
2.566612806E1,-6.700134277E-2,1.074371338E0,6.137588501E0
2.571612806E1,-2.536315918E-1,1.667800903E0,5.647064209E0
2.576612806E1,-8.613586426E-2,2.036285400E0,8.597412109E0
2.581612806E1,3.469543457E-1,1.483551025E0,1.077009583E1
2.586612806E1,2.010040283E-1,6.723785400E-1,1.306959534E1
2.591612806E1,1.246658325E0,1.012161255E0,1.303849792E1
2.596612806E1,2.344970703E-1,7.417755127E-1,9.640686035E0
2.601612806E1,-2.584228516E-1,-1.938171387E-1,1.322273254E1
2.606612806E1,-2.297058105E-1,-5.934143066E-1,8.915664673E0
2.611612806E1,2.775726318E-1,-1.746826172E-1,9.568893433E0
2.616612806E1,3.110656738E-1,6.580200195E-1,8.008773804E0
2.621612806E1,1.340026855E-1,1.189239502E0,6.943969727E0
2.626612806E1,2.344970703E-1,1.198806763E0,8.049453735E0
2.631612806E1,7.298126221E-1,1.050445557E0,1.100219727E1
2.636612806E1,4.450683594E-1,3.373870850E-1,1.265324402E1
2.641612806E1,-4.307556152E-2,6.364898682E-1,1.200000000E1
2.646612806E1,2.871398926E-1,-1.555328369E-1,1.331127930E1
2.651612806E1,-6.771697998E-1,-8.661956787E-1,1.238525391E1
2.656612806E1,1.344772339E0,1.483612061E-1,8.128417969E0
2.661612806E1,9.643096924E-1,9.978027344E-1,7.712066650E0
2.666612806E1,-3.637084961E-1,8.159484863E-1,5.529815674E0
2.671612806E1,-8.566284180E-1,1.272979736E0,7.173675537E0
2.676612806E1,5.120697021E-1,1.871185303E0,8.673980713E0
2.681612806E1,1.117446899E0,1.878372192E0,1.120797729E1
2.686612806E1,9.164581299E-1,1.232299805E0,1.502214050E1
2.691612806E1,1.409378052E0,1.591232300E0,1.274177551E1
2.696612806E1,8.853149414E-2,-2.153015137E-2,1.537628174E1
2.701612806E1,-4.067840576E-1,-4.594268799E-1,8.360519409E0
2.706612806E1,-4.235229492E-1,-6.700134277E-2,8.915664673E0
2.711612806E1,4.355010986E-1,7.800598145E-1,6.915252686E0
2.716612806E1,4.043884277E-1,1.270584106E0,6.431915283E0
2.721612806E1,-2.871704102E-2,1.509872437E0,7.470397949E0
2.726612806E1,1.220397949E-1,1.004989624E0,9.123840332E0
2.731612806E1,-2.823486328E-1,2.249298096E-1,1.293081665E1
2.736612806E1,9.116668701E-1,3.661041260E-1,1.278724670E1
2.741612806E1,1.031311035E0,3.661041260E-1,1.122712708E1
2.746612806E1,2.344970703E-1,3.373870850E-1,1.401715088E1
2.751612806E1,5.694885254E-1,-1.387786865E-1,8.994613647E0
2.756612806E1,1.366302490E0,3.469543457E-1,7.948959351E0
2.761612806E1,8.422698975E-1,1.316055298E0,6.841079712E0
2.766612806E1,-4.737854004E-1,1.284942627E0,6.305084229E0
2.771612806E1,-2.488555908E-1,1.926223755E0,8.657226562E0
2.776612806E1,4.331054688E-1,1.607971191E0,1.097587585E1
2.781612806E1,8.805541992E-1,1.081558228E0,1.388554382E1
2.786612806E1,6.053771973E-1,1.442871094E0,1.326580811E1
2.791612806E1,9.906311035E-1,-5.575256348E-1,1.549353027E1
2.796612806E1,2.823486328E-1,-1.028900146E-1,9.030517578E0
2.801612806E1,-4.689941406E-1,-3.397827148E-1,7.948959351E0
2.806612806E1,1.938171387E-1,5.072784424E-1,7.068405151E0
2.811612806E1,-1.387786865E-1,8.207397461E-1,6.226119995E0
2.816612806E1,-2.823486328E-1,1.019348145E0,7.649856567E0
2.821612806E1,1.340026855E-1,1.308868408E0,9.793823242E0
2.826612806E1,2.395629883E-3,4.833526611E-1,1.207658386E1
2.831612806E1,8.039855957E-1,6.700134277E-2,1.330409241E1
2.836612806E1,2.823486328E-1,6.460571289E-1,1.218664551E1
2.841612806E1,1.265808105E0,2.512512207E-1,1.300259399E1
2.846612806E1,8.279113770E-1,-9.858398438E-1,1.036570740E1
2.851612806E1,1.014556885E0,-7.656860352E-2,8.889343262E0
2.856612806E1,-2.249298096E-1,8.997039795E-1,6.556335449E0
2.861612806E1,-9.236297607E-1,1.292129517E0,5.235488892E0
2.866612806E1,-4.235229492E-1,1.986038208E0,8.197814941E0
2.871612806E1,-4.331054688E-1,1.653442383E0,1.074617004E1
2.876612806E1,7.896423340E-2,9.116668701E-1,1.395494080E1
2.881612806E1,8.590240479E-1,4.259185791E-1,1.416311646E1
2.886612806E1,1.351943970E0,-6.269226074E-1,1.246661377E1
2.891612806E1,-2.395629883E-3,-9.810638428E-1,1.144007874E1
2.896612806E1,-5.024719238E-2,-5.455627441E-1,8.918045044E0
2.901612806E1,-1.052856445E-1,-2.153015137E-2,7.501495361E0
2.906612806E1,-1.435699463E-1,8.231353760E-1,6.161514282E0
2.911612806E1,-2.392883301E-1,1.442871094E0,7.082748413E0
2.916612806E1,-7.728881836E-1,1.091125488E0,8.786437988E0
2.921612806E1,-5.312042236E-1,9.643096924E-1,1.115295410E1
2.926612806E1,-2.967071533E-1,2.297058105E-1,1.240917969E1
2.931612806E1,-1.435699463E-1,8.422698975E-1,1.274177551E1
2.936612806E1,9.858398438E-1,-1.292114258E-1,1.191146851E1
2.941612806E1,3.588867188E-2,-9.284210205E-1,1.258384705E1
2.946612806E1,1.825729370E0,-2.943115234E-1,9.365509033E0
2.951612806E1,1.016952515E0,7.441711426E-1,8.264816284E0
2.956612806E1,5.503845215E-2,1.141372681E0,5.130218506E0
2.961612806E1,-2.392578125E-2,1.787445068E0,6.345764160E0
2.966612806E1,4.378814697E-1,1.866409302E0,9.303298950E0
2.971612806E1,2.105712891E-1,1.509872437E0,1.263410950E1
2.976612806E1,-1.124572754E-1,9.427795410E-1,1.391426086E1
2.981612806E1,-2.703857422E-1,1.674972534E0,1.237329102E1
2.986612806E1,4.091796875E-1,4.043884277E-1,1.456750488E1
2.991612806E1,-6.173553467E-1,-7.154541016E-1,9.487548828E0
2.996612806E1,-7.968139648E-1,-5.312042236E-1,9.190826416E0
3.001612806E1,-6.006011963E-1,3.661041260E-1,6.884155273E0
3.006612806E1,-1.004943848E-1,7.920227051E-1,5.443664551E0
3.011612806E1,-5.144500732E-1,7.106628418E-1,6.786041260E0
3.016612806E1,3.086700439E-1,1.170089722E0,9.829711914E0
3.021612806E1,9.332275391E-2,5.359954834E-1,1.250489807E1
3.026612806E1,4.618072510E-1,3.302154541E-1,1.324188232E1
3.031612806E1,2.895355225E-1,-2.871704102E-2,1.069113159E1
3.036612806E1,-1.067199707E0,-5.527496338E-1,1.465364075E1
3.041612806E1,5.551300049E-1,-4.115600586E-1,8.662017822E0
3.046612806E1,5.862426758E-1,-7.417297363E-2,1.018864441E1
3.051612806E1,5.120697021E-1,7.178497314E-1,6.604187012E0
3.056612806E1,2.201385498E-1,1.433303833E0,6.147155762E0
3.061612806E1,2.847442627E-1,1.450057983E0,8.530410767E0
3.066612806E1,1.457229614E0,1.938186646E0,1.110508728E1
3.071612806E1,8.542327881E-1,1.270584106E0,1.336152649E1
3.076612806E1,4.355010986E-1,1.251449585E0,1.284706116E1
3.081612806E1,-4.067840576E-1,6.532440186E-1,1.003071594E1
3.086612806E1,-8.518524170E-1,-6.628112793E-1,1.154058838E1
3.091612806E1,5.551300049E-1,-9.331970215E-1,1.082513428E1
3.096612806E1,-4.211425781E-1,-4.259185791E-1,1.017906189E1
3.101612806E1,-1.076812744E-1,6.771697998E-1,5.788238525E0
3.106612806E1,-6.125640869E-1,1.055236816E0,5.618347168E0
3.111612806E1,-1.026519775E0,6.963043213E-1,7.726425171E0
3.116612806E1,1.435699463E-1,7.274169922E-1,1.265324402E1
3.121612806E1,3.732757568E-1,1.651000977E-1,1.331605530E1
3.126612806E1,3.230285645E-1,1.150955200E0,1.194975281E1
3.131612806E1,7.896423340E-2,-3.349914551E-1,1.542652893E1
3.136612806E1,5.862426758E-1,-7.728881836E-1,1.060260010E1
3.141612806E1,9.068756104E-1,-1.363983154E-1,8.458633423E0
3.146612806E1,2.919311523E-1,1.081558228E0,5.759521484E0
3.151612806E1,-2.464599609E-1,1.294509888E0,5.857635498E0
3.156612806E1,-5.264282227E-2,1.277770996E0,8.556732178E0
3.161612806E1,7.226257324E-1,1.957336426E0,1.100938416E1
3.166612806E1,2.225341797E-1,1.488342285E0,1.234457397E1
3.171612806E1,6.604156494E-1,1.067199707E0,1.297149658E1
3.176612806E1,2.225341797E-1,5.168457031E-1,1.183250427E1
3.181612806E1,-5.742797852E-1,-8.853454590E-1,1.289730835E1
3.186612806E1,-3.684997559E-1,-8.829498291E-1,8.705093384E0
3.191612806E1,-5.838470459E-1,-3.110656738E-1,8.056640625E0
3.196612806E1,-5.743408203E-2,8.111724854E-1,6.558731079E0
3.201612806E1,-9.690856934E-1,1.299301147E0,6.963119507E0
3.206612806E1,-2.991027832E-1,1.619934082E0,9.133407593E0
3.211612806E1,-3.828582764E-1,1.438079834E0,1.109552002E1
3.216612806E1,5.718841553E-1,9.906311035E-1,1.270588684E1
3.221612806E1,-2.536315918E-1,4.187469482E-1,1.317727661E1
3.226612806E1,9.714813232E-1,7.920227051E-1,1.082991028E1
3.231612806E1,-8.279113770E-1,-4.307556152E-2,1.238285828E1
3.236612806E1,3.206329346E-1,-7.171630859E-3,8.362915039E0
3.241612806E1,2.488555908E-1,4.809570312E-1,9.628723145E0
3.246612806E1,-1.627044678E-1,8.949127197E-1,6.228515625E0
3.251612806E1,-1.060012817E0,1.375869751E0,7.293319702E0
3.256612806E1,-2.679901123E-1,1.631912231E0,9.504287720E0
3.261612806E1,1.603240967E-1,1.883148193E0,1.090887451E1
3.266612806E1,5.743408203E-2,1.263412476E0,1.353379822E1
3.271612806E1,-2.440643311E-1,1.689331055E0,1.127497864E1
3.276612806E1,-7.154541016E-1,-2.153472900E-1,1.373959351E1
3.281612806E1,-8.135528564E-1,-3.469543457E-1,8.319839478E0
3.286612806E1,-7.896423340E-2,9.571838379E-2,8.563919067E0
3.291612806E1,3.038940430E-1,6.340942383E-1,8.025527954E0
3.296612806E1,-2.871704102E-2,1.351943970E0,7.121032715E0
3.301612806E1,-4.522399902E-1,1.189239502E0,7.757537842E0
3.306612806E1,6.460571289E-2,1.292129517E0,1.063609314E1
3.311612806E1,2.081756592E-1,7.513427734E-1,1.241874695E1
3.316612806E1,7.010955811E-1,5.264282227E-2,1.363908386E1
3.321612806E1,7.680969238E-1,4.307556152E-2,1.104766846E1
3.326612806E1,-7.680969238E-1,-5.264282227E-1,1.420140076E1
3.331612806E1,8.494567871E-1,-1.196289062E-2,9.006591797E0
3.336612806E1,2.062606812E0,6.819610596E-1,9.104690552E0
3.341612806E1,5.743408203E-2,9.427795410E-1,7.015762329E0
3.346612806E1,-3.421783447E-1,1.387832642E0,6.128021240E0
3.351612806E1,1.914978027E-2,1.418945312E0,8.200210571E0
3.356612806E1,5.814514160E-1,1.904693604E0,9.994827271E0
3.361612806E1,2.560272217E-1,1.265808105E0,1.272024536E1
3.366612806E1,5.383911133E-1,9.308013916E-1,1.343809509E1
3.371612806E1,1.340026855E-1,6.699829102E-1,1.130848694E1
3.376612806E1,-7.226257324E-1,-3.924255371E-1,1.182533264E1
3.381612806E1,-2.344970703E-1,5.024719238E-2,1.026760864E1
3.386612806E1,-4.905242920E-1,3.900299072E-1,6.958328247E0
3.391612806E1,-3.038940430E-1,1.208374023E0,6.563507080E0
3.396612806E1,-7.034912109E-1,1.404586792E0,7.389038086E0
3.401612806E1,-7.633056641E-1,1.651046753E0,8.982650757E0
3.406612806E1,-6.460571289E-1,1.280166626E0,1.153100586E1
3.411612806E1,3.349914551E-1,6.556396484E-1,1.271067810E1
3.416612806E1,-6.867370605E-1,1.189239502E0,1.130609131E1
3.421612806E1,5.264282227E-2,6.700134277E-2,1.353379822E1
3.426612806E1,-3.852386475E-1,-1.210769653E0,1.172244263E1
3.431612806E1,1.605590820E0,3.062744141E-1,7.578063965E0
3.436612806E1,5.814514160E-1,1.251449585E0,7.264602661E0
3.441612806E1,-5.048828125E-1,1.148559570E0,6.223724365E0
3.446612806E1,-4.498443604E-1,1.734802246E0,8.310272217E0
3.451612806E1,1.172485352E-1,1.770690918E0,9.894317627E0
3.456612806E1,-1.076812744E-1,1.507476807E0,1.261735535E1
3.461612806E1,4.091796875E-1,1.079162598E0,1.399562073E1
3.466612806E1,-7.657012939E-1,1.194015503E0,1.071505737E1
3.471612806E1,-5.407714844E-1,-1.914978027E-2,1.327537537E1
3.476612806E1,-7.010955811E-1,-4.067840576E-1,9.518646240E0
3.481612806E1,-7.082824707E-1,2.395629883E-3,8.377273560E0
3.486612806E1,-3.421783447E-1,7.992095947E-1,6.920043945E0
3.491612806E1,-4.139556885E-1,1.172485352E0,6.295516968E0
3.496612806E1,-5.216369629E-1,9.260253906E-1,7.353149414E0
3.501612806E1,-1.651000977E-1,1.256225586E0,8.848663330E0
3.506612806E1,-7.992095947E-1,2.967071533E-1,1.442153931E1
3.511612806E1,1.674957275E-1,4.713897705E-1,1.389512634E1
3.516612806E1,-6.029968262E-1,2.823486328E-1,1.091127014E1
3.521612806E1,-1.076812744E-1,-6.388854980E-1,1.362472534E1
3.526612806E1,8.877410889E-1,-7.680969238E-1,9.322433472E0
3.531612806E1,1.129409790E0,1.866455078E-1,8.566299438E0
3.536612806E1,-4.187469482E-1,6.221313477E-1,7.075576782E0
3.541612806E1,-7.178497314E-1,1.265808105E0,6.960723877E0
3.546612806E1,-2.177429199E-1,1.643875122E0,8.740982056E0
3.551612806E1,1.100769043E-1,1.878372192E0,1.017428589E1
3.556612806E1,-2.081756592E-1,8.231353760E-1,1.299063110E1
3.561612806E1,-4.331054688E-1,1.074371338E0,1.289730835E1
3.566612806E1,3.852386475E-1,-8.805541992E-1,1.496949768E1
3.571612806E1,1.100769043E-1,-3.613128662E-1,9.291336060E0
3.576612806E1,-5.790557861E-1,-6.795654297E-1,8.377273560E0
3.581612806E1,-3.972015381E-1,5.981445312E-2,8.104492188E0
3.586612806E1,-4.283142090E-1,6.986999512E-1,6.630508423E0
3.591612806E1,-2.344970703E-1,9.954071045E-1,7.142578125E0
3.596612806E1,-9.116668701E-1,1.076766968E0,9.394226074E0
3.601612806E1,-6.460571289E-1,1.088729858E0,1.116729736E1
3.606612806E1,2.440643311E-1,3.708801270E-1,1.357447815E1
3.611612806E1,1.794586182E-1,7.369842529E-1,1.309831238E1
3.616612806E1,7.513427734E-1,6.221008301E-2,1.254795837E1
3.621612806E1,-6.460571289E-1,-1.095916748E0,1.101176453E1
3.626612806E1,9.164581299E-1,-8.375549316E-2,8.894119263E0
3.631612806E1,3.924255371E-1,5.670928955E-1,7.726425171E0
3.636612806E1,-1.107879639E0,9.331970215E-1,6.166305542E0
3.641612806E1,-6.819610596E-1,1.490722656E0,7.563705444E0
3.646612806E1,2.129669189E-1,1.454833984E0,9.817749023E0
3.651612806E1,5.910339355E-1,1.131805420E0,1.191865540E1
3.656612806E1,2.632141113E-1,3.756713867E-1,1.361276245E1
3.661612806E1,-4.791259766E-3,1.344772339E0,1.141137695E1
3.666612806E1,-1.507415771E-1,-2.943115234E-1,1.427319336E1
3.671612806E1,-1.914215088E-1,-6.173553467E-1,9.729217529E0
3.676612806E1,1.196289062E-2,-3.349914551E-1,9.025726318E0
3.681612806E1,1.722869873E-1,2.799530029E-1,6.984649658E0
3.686612806E1,-3.278198242E-1,9.906311035E-1,6.498901367E0
3.691612806E1,-1.031311035E0,1.136596680E0,7.673782349E0
3.696612806E1,-5.862426758E-1,1.134201050E0,9.851257324E0
3.701612806E1,-6.867370605E-1,7.633056641E-1,1.157168579E1
3.706612806E1,4.187469482E-1,8.327026367E-1,1.293798828E1
3.711612806E1,-7.171630859E-3,1.079162598E0,1.140419006E1
3.716612806E1,3.828430176E-2,-2.010040283E-1,1.482832336E1
3.721612806E1,-1.196441650E-1,-8.183441162E-1,1.028674316E1
3.726612806E1,5.623168945E-1,5.743408203E-2,7.412963867E0
3.731612806E1,7.489471436E-1,6.795654297E-1,6.221343994E0
3.736612806E1,3.254241943E-1,1.356735229E0,5.994018555E0
3.741612806E1,-2.033843994E-1,1.512268066E0,7.745559692E0
3.746612806E1,1.009765625E0,2.187042236E0,1.038246155E1
3.751612806E1,3.110656738E-1,1.512268066E0,1.219860840E1
3.756612806E1,-1.182052612E0,5.814514160E-1,1.283509827E1
3.761612806E1,-1.289733887E0,9.882354736E-1,1.149751282E1
3.766612806E1,-9.571228027E-1,-1.373474121E0,1.597688293E1
3.771612806E1,-6.556396484E-1,-6.986999512E-1,8.640487671E0
3.776612806E1,-1.229904175E0,-5.599212646E-1,7.587646484E0
3.781612806E1,-9.044799805E-1,2.105712891E-1,7.499099731E0
3.786612806E1,-5.814514160E-1,8.255310059E-1,7.422531128E0
3.791612806E1,-7.082824707E-1,1.205978394E0,7.460815430E0
3.796612806E1,-5.862426758E-1,1.055236816E0,1.048535156E1
3.801612806E1,-3.182525635E-1,6.795654297E-1,1.217468262E1
3.806612806E1,-1.191619873E0,1.105484009E0,1.115295410E1
3.811612806E1,5.910339355E-1,2.895355225E-1,1.345005798E1
3.816612806E1,-1.256225586E0,-2.225341797E-1,1.205743408E1
3.821612806E1,-6.269226074E-1,-2.488555908E-1,9.513870239E0
3.826612806E1,2.153472900E-1,4.355010986E-1,7.281356812E0
3.831612806E1,1.675415039E-2,1.179656982E0,5.931808472E0
3.836612806E1,-3.469543457E-1,1.150955200E0,6.788436890E0
3.841612806E1,1.196441650E-1,1.942977905E0,8.788833618E0
3.846612806E1,-5.024871826E-1,2.388031006E0,8.918045044E0
3.851612806E1,-1.308868408E0,2.550750732E0,1.214596558E1
3.856612806E1,5.192413330E-1,1.653442383E0,1.432583618E1
3.861612806E1,-6.532440186E-1,9.164581299E-1,1.320120239E1
3.866612806E1,2.847442627E-1,-4.163513184E-1,1.556291199E1
3.871612806E1,-1.643875122E0,-1.124633789E0,1.134197998E1
3.876612806E1,-9.116668701E-1,-5.335998535E-1,9.343978882E0
3.881612806E1,-4.977111816E-1,3.230285645E-1,5.347961426E0
3.886612806E1,-8.901367188E-1,8.949127197E-1,6.879364014E0
3.891612806E1,-1.172485352E-1,1.031311035E0,8.362915039E0
3.896612806E1,-1.411743164E-1,1.205978394E0,9.243469238E0
3.901612806E1,3.828430176E-2,4.019927979E-1,1.226081848E1
3.906612806E1,-4.307556152E-2,2.560272217E-1,1.217707825E1
3.911612806E1,3.995971680E-1,-7.417755127E-1,1.304087830E1
3.916612806E1,-1.430908203E0,-1.653442383E0,1.454357910E1
3.921612806E1,-3.995971680E-1,-5.312042236E-1,8.729019165E0
3.926612806E1,1.552947998E0,8.303070068E-1,8.224136353E0
3.931612806E1,4.474639893E-1,1.344772339E0,6.563507080E0
3.936612806E1,-1.986083984E-1,1.533798218E0,7.946563721E0
3.941612806E1,-2.775726318E-1,1.241882324E0,9.549758911E0
3.946612806E1,4.355010986E-1,1.292129517E0,1.127976990E1
3.951612806E1,1.052856445E-1,9.116668701E-1,1.354098511E1
3.956612806E1,3.852386475E-1,1.026519775E0,1.317488098E1
3.961612806E1,-2.155929565E0,1.899902344E0,8.532806396E0
3.966612806E1,-1.363906860E0,-1.627044678E-1,1.364866638E1
3.971612806E1,1.986083984E-1,-4.570312500E-1,1.113140869E1
3.976612806E1,-9.092712402E-1,-1.196441650E-1,8.085342407E0
3.981612806E1,-4.546356201E-1,1.842498779E-1,6.228515625E0
3.986612806E1,-4.163513184E-1,7.585296631E-1,6.623336792E0
3.991612806E1,-4.402770996E-1,7.992095947E-1,7.575683594E0
3.996612806E1,8.375549316E-2,1.258621216E0,9.657424927E0
4.001612806E1,6.245269775E-1,5.455627441E-1,1.166500854E1
4.006612806E1,-3.349304199E-2,8.566284180E-1,1.350987244E1
4.011612806E1,1.397415161E0,1.244201660E-1,1.284228516E1
4.016612806E1,-1.466796875E0,-8.781585693E-1,1.397647095E1
4.021612806E1,3.589172363E-1,2.297058105E-1,7.128219604E0
4.026612806E1,9.547424316E-1,1.205978394E0,8.003997803E0
4.031612806E1,-4.498443604E-1,8.015899658E-1,7.070785522E0
4.036612806E1,-5.742797852E-1,1.466796875E0,8.169097900E0
4.041612806E1,6.460571289E-2,1.210769653E0,8.647659302E0
4.046612806E1,2.632141113E-2,1.481155396E0,1.188993835E1
4.051612806E1,-2.464599609E-1,8.757781982E-1,1.377308655E1
4.056612806E1,-1.277770996E0,1.655838013E0,1.145922852E1
4.061612806E1,-2.703857422E-1,2.057800293E-1,1.246899414E1
4.066612806E1,-3.876342773E-1,-4.355010986E-1,9.434906006E0
4.071612806E1,-4.163513184E-1,-3.732757568E-1,9.480361938E0
4.076612806E1,1.938171387E-1,3.972015381E-1,8.193023682E0
4.081612806E1,2.010040283E-1,1.009765625E0,6.898513794E0
4.086612806E1,-2.368927002E-1,1.430908203E0,7.372283936E0
4.091612806E1,4.067993164E-2,1.509872437E0,8.437088013E0
4.096612806E1,-1.459655762E-1,1.028915405E0,1.153819275E1
4.101612806E1,1.746826172E-1,3.469543457E-1,1.272981262E1
4.106612806E1,-2.656097412E-1,9.882354736E-1,1.167697144E1
4.111612806E1,2.416687012E-1,-1.770629883E-1,1.539303589E1
4.116612806E1,4.043884277E-1,-4.019927979E-1,1.025564575E1
4.121612806E1,1.507476807E0,2.943115234E-1,8.807983398E0
4.126612806E1,3.493499756E-1,7.202453613E-1,7.678573608E0
4.131612806E1,-3.158569336E-1,1.194015503E0,6.520446777E0
4.136612806E1,-3.086700439E-1,1.653442383E0,8.116455078E0
4.141612806E1,3.828582764E-1,1.557723999E0,9.056838989E0
4.146612806E1,5.240325928E-1,1.272979736E0,1.202632141E1
4.151612806E1,7.968139648E-1,6.245269775E-1,1.374676514E1
4.156612806E1,7.178497314E-1,5.431671143E-1,1.113619995E1
4.161612806E1,-3.565368652E-1,-3.828582764E-1,1.211247253E1
4.166612806E1,-3.900299072E-1,-3.876342773E-1,9.477966309E0
4.171612806E1,1.698913574E-1,2.584228516E-1,9.095123291E0
4.176612806E1,4.809570312E-1,6.723785400E-1,6.891326904E0
4.181612806E1,-5.096740723E-1,1.500305176E0,7.039688110E0
4.186612806E1,-3.613128662E-1,1.490722656E0,8.257629395E0
4.191612806E1,-3.684997559E-1,1.162918091E0,1.049252319E1
4.196612806E1,3.302154541E-1,5.216369629E-1,1.286621094E1
4.201612806E1,6.221008301E-2,7.082824707E-1,1.224168396E1
4.206612806E1,6.628112793E-1,-8.375549316E-2,1.145922852E1
4.211612806E1,-1.040878296E0,-5.479583740E-1,1.428515625E1
4.216612806E1,4.450683594E-1,-2.775726318E-1,9.501892090E0
4.221612806E1,1.062408447E0,4.211425781E-1,7.003799438E0
4.226612806E1,-4.283142090E-1,8.327026367E-1,6.680755615E0
4.231612806E1,-7.968139648E-1,1.136596680E0,7.417755127E0
4.236612806E1,5.024719238E-2,1.328018188E0,8.980270386E0
4.241612806E1,4.307556152E-2,6.963043213E-1,1.127258301E1
4.246612806E1,4.115600586E-1,1.002593994E0,1.252882385E1
4.251612806E1,5.503845215E-2,1.428512573E0,1.294277954E1
4.256612806E1,8.997039795E-1,5.981445312E-2,1.157647705E1
4.261612806E1,-7.704925537E-1,-7.130584717E-1,1.221775818E1
4.266612806E1,-1.292114258E-1,-3.182525635E-1,9.016159058E0
4.271612806E1,-2.201385498E-1,2.464599609E-1,8.860626221E0
4.276612806E1,2.105712891E-1,9.523468018E-1,6.527618408E0
4.281612806E1,-7.010955811E-1,1.339981079E0,7.592422485E0
4.286612806E1,-3.637084961E-1,1.454833984E0,8.874984741E0
4.291612806E1,-1.914215088E-1,1.177261353E0,1.100698853E1
4.296612806E1,5.479583740E-1,3.158569336E-1,1.240200806E1
4.301612806E1,4.115600586E-1,2.368927002E-1,1.115773010E1
4.306612806E1,-9.978027344E-1,-8.542327881E-1,1.510350037E1
4.311612806E1,-4.689941406E-1,-5.838470459E-1,1.039920044E1
4.316612806E1,1.615158081E0,5.383911133E-1,8.008773804E0
4.321612806E1,2.057800293E-1,9.882354736E-1,7.668991089E0
4.326612806E1,-5.264282227E-1,1.062408447E0,6.924835205E0
4.331612806E1,-1.675415039E-2,1.691726685E0,8.197814941E0
4.336612806E1,5.312042236E-1,1.962112427E0,9.420547485E0
4.341612806E1,2.679901123E-1,1.670196533E0,1.204307556E1
4.346612806E1,5.312042236E-1,1.146163940E0,1.296910095E1
4.351612806E1,-1.411743164E-1,1.981262207E0,1.094715881E1
4.356612806E1,-1.651000977E-1,-1.555328369E-1,1.450289917E1
4.361612806E1,-3.206329346E-1,-6.939697266E-2,9.013763428E0
4.366612806E1,-4.737854004E-1,-2.392578125E-2,7.867599487E0
4.371612806E1,7.177734375E-2,5.599212646E-1,7.661819458E0
4.376612806E1,-3.302154541E-1,1.069595337E0,6.862609863E0
4.381612806E1,-3.349914551E-1,1.634292603E0,7.252639771E0
4.386612806E1,-2.871704102E-2,1.433303833E0,9.068801880E0
4.391612806E1,7.656860352E-2,9.499511719E-1,1.218424988E1
4.396612806E1,2.081756592E-1,6.221313477E-1,1.377308655E1
4.401612806E1,1.016952515E0,3.565368652E-1,1.190190125E1
4.406612806E1,-9.403839111E-1,-5.288085938E-1,1.412483215E1
4.411612806E1,7.106628418E-1,-4.235229492E-1,9.619140625E0
4.416612806E1,1.409378052E0,4.378814697E-1,8.874984741E0
4.421612806E1,-3.349914551E-1,9.379882812E-1,5.910278320E0
4.426612806E1,-7.178497314E-1,1.438079834E0,6.116058350E0
4.431612806E1,-2.416687012E-1,1.715652466E0,8.410766602E0
4.436612806E1,-3.828430176E-2,1.517044067E0,1.040399170E1
4.441612806E1,4.791259766E-3,1.244262695E0,1.326820374E1
4.446612806E1,4.139556885E-1,1.004989624E0,1.314616394E1
4.451612806E1,-4.450683594E-1,8.350982666E-1,1.122233582E1
4.456612806E1,-4.139556885E-1,-2.201385498E-1,1.298345947E1
4.461612806E1,-3.062744141E-1,-3.995971680E-1,1.018624878E1
4.466612806E1,-1.483612061E-1,-2.153015137E-2,7.609176636E0
4.471612806E1,6.939697266E-2,6.269226074E-1,6.656829834E0
4.476612806E1,-5.168457031E-1,1.136596680E0,6.546768188E0
4.481612806E1,-5.264282227E-1,1.280166626E0,8.322235107E0
4.486612806E1,-6.221008301E-2,9.571228027E-1,9.626327515E0
4.491612806E1,-2.395629883E-3,-3.349304199E-2,1.289730835E1
4.496612806E1,4.791259766E-3,-4.785156250E-2,1.312463379E1
4.501612806E1,1.304092407E0,-3.684997559E-1,1.159083557E1
4.506612806E1,-1.002593994E0,-7.848510742E-1,1.429232788E1
4.511612806E1,1.421340942E0,-4.977111816E-1,9.896713257E0
4.516612806E1,9.834442139E-1,1.363983154E-1,8.743377686E0
4.521612806E1,-2.057800293E-1,8.015899658E-1,6.604187012E0
4.526612806E1,-3.493499756E-1,1.351943970E0,5.845672607E0
4.531612806E1,-1.340026855E-1,1.684539795E0,8.126022339E0
4.536612806E1,1.459655762E-1,1.347152710E0,1.006660461E1
4.541612806E1,-4.019927979E-1,4.905242920E-1,1.339741516E1
4.546612806E1,1.722869873E-1,1.411758423E0,1.327059937E1
4.551612806E1,9.499511719E-1,-1.155731201E0,1.529492188E1
4.556612806E1,4.522399902E-1,-5.455627441E-1,1.096151733E1
4.561612806E1,-4.283142090E-1,-1.100769043E-1,7.549362183E0
4.566612806E1,-1.507415771E-1,2.608184814E-1,7.027725220E0
4.571612806E1,4.115600586E-1,1.048049927E0,6.092132568E0
4.576612806E1,-8.733825684E-1,1.261016846E0,7.099502563E0
4.581612806E1,1.028900146E-1,1.655838013E0,8.791229248E0
4.586612806E1,-1.579284668E-1,6.867370605E-1,1.212921143E1
4.591612806E1,2.392883301E-1,2.847442627E-1,1.357687378E1
4.596612806E1,3.828430176E-2,1.115051270E0,1.239721680E1
4.601612806E1,7.202453613E-1,-3.684997559E-1,1.388793945E1
4.606612806E1,7.417297363E-2,-1.237091064E0,1.087777710E1
4.611612806E1,9.762725830E-1,-1.316070557E-1,8.128417969E0
4.616612806E1,1.770629883E-1,1.100692749E0,7.245468140E0
4.621612806E1,-9.762725830E-1,1.191619873E0,6.199798584E0
4.626612806E1,4.307556152E-2,1.952545166E0,8.097305298E0
4.631612806E1,2.010040283E-1,1.663009644E0,9.597610474E0
4.636612806E1,-8.135986328E-2,1.256225586E0,1.166979980E1
4.641612806E1,7.417297363E-2,1.088729858E0,1.377308655E1
4.646612806E1,-9.260253906E-1,1.639083862E0,1.145922852E1
4.651612806E1,-2.392883301E-1,4.211425781E-1,1.264367676E1
4.656612806E1,-1.579284668E-1,-4.450683594E-1,1.030827332E1
4.661612806E1,-5.623168945E-1,2.395629883E-3,7.570892334E0
4.666612806E1,-4.307098389E-1,2.991027832E-1,6.812362671E0
4.671612806E1,-7.944183350E-1,9.499511719E-1,6.841079712E0
4.676612806E1,-6.293182373E-1,1.064804077E0,8.267196655E0
4.681612806E1,-9.690856934E-1,8.757781982E-1,9.863220215E0
4.686612806E1,1.124572754E-1,5.599212646E-1,1.240438843E1
4.691612806E1,-7.369842529E-1,6.101684570E-1,1.305046082E1
4.696612806E1,9.260253906E-1,5.862426758E-1,1.122233582E1
4.701612806E1,-1.134201050E0,-8.685913086E-1,1.337826538E1
4.706612806E1,-2.775726318E-1,-7.657012939E-1,1.010009766E1
4.711612806E1,2.488555908E-1,2.799530029E-1,8.501693726E0
4.716612806E1,-3.517456055E-1,1.318450928E0,6.156738281E0
4.721612806E1,-4.163513184E-1,1.591232300E0,6.252441406E0
4.726612806E1,1.435852051E-2,1.720443726E0,8.841476440E0
4.731612806E1,-1.794586182E-1,9.930267334E-1,1.180618286E1
4.736612806E1,8.375549316E-2,6.149597168E-1,1.453401184E1
4.741612806E1,-9.332275391E-2,1.095916748E0,1.255992126E1
4.746612806E1,4.115600586E-1,-3.828582764E-1,1.556770325E1
4.751612806E1,-6.316986084E-1,-2.943115234E-1,8.657226562E0
4.756612806E1,-1.024124146E0,2.105712891E-1,8.104492188E0
4.761612806E1,-1.674957275E-1,9.068756104E-1,6.271591187E0
4.766612806E1,-3.158569336E-1,1.308868408E0,6.163909912E0
4.771612806E1,-5.096740723E-1,1.256225586E0,6.824325562E0
4.776612806E1,-2.488555908E-1,1.165298462E0,9.714859009E0
4.781612806E1,-2.895355225E-1,3.876342773E-1,1.297149658E1
4.786612806E1,6.245269775E-1,6.915283203E-1,1.401475525E1
4.791612806E1,9.092712402E-1,9.355926514E-1,9.877578735E0
4.796612806E1,-4.594268799E-1,-2.656097412E-1,1.360079956E1
4.801612806E1,4.067993164E-2,-7.489471436E-1,8.879760742E0
4.806612806E1,1.100692749E0,3.589172363E-1,9.863220215E0
4.811612806E1,-3.684997559E-1,7.944183350E-1,6.946365356E0
4.816612806E1,-4.833526611E-1,1.696517944E0,6.855438232E0
4.821612806E1,-5.312042236E-1,1.670196533E0,9.054443359E0
4.826612806E1,1.507415771E-1,1.950149536E0,1.082034302E1
4.831612806E1,-1.196441650E-1,1.162918091E0,1.342373657E1
4.836612806E1,1.435852051E-2,1.871185303E0,1.276571655E1
4.841612806E1,3.684997559E-1,2.395629883E-3,1.400997925E1
4.846612806E1,2.895355225E-1,1.722869873E-1,9.566513062E0
4.851612806E1,-3.278198242E-1,-2.321014404E-1,8.870193481E0
4.856612806E1,-8.613586426E-2,6.269226074E-1,8.092529297E0
4.861612806E1,-1.172485352E-1,1.055236816E0,6.216552734E0
4.866612806E1,-6.819610596E-1,1.677368164E0,6.350555420E0
4.871612806E1,-1.507415771E-1,1.758728027E0,8.164306641E0
4.876612806E1,-5.240325928E-1,1.115051270E0,1.148554993E1
4.881612806E1,3.900299072E-1,8.590240479E-1,1.344049072E1
4.886612806E1,-1.100769043E-1,1.631912231E0,1.222732544E1
4.891612806E1,3.349914551E-1,8.542327881E-1,1.352662659E1
4.896612806E1,-1.866455078E-1,-8.542327881E-1,1.104287720E1
4.901612806E1,1.048049927E0,1.196289062E-2,8.743377686E0
4.906612806E1,1.651000977E-1,1.308868408E0,6.819549561E0
4.911612806E1,-9.714813232E-1,1.734802246E0,5.735595703E0
4.916612806E1,-6.771697998E-1,1.904693604E0,8.260025024E0
4.921612806E1,-2.656097412E-1,2.048263550E0,1.037049866E1
4.926612806E1,2.249298096E-1,1.730010986E0,1.321316528E1
4.931612806E1,7.465667725E-1,1.433303833E0,1.349073792E1
4.936612806E1,1.866455078E-1,7.010955811E-1,1.205982971E1
4.941612806E1,2.177429199E-1,2.010040283E-1,1.322991943E1
4.946612806E1,-5.766754150E-1,4.163513184E-1,8.877365112E0
4.951612806E1,-2.368927002E-1,6.508483887E-1,7.585250854E0
4.956612806E1,1.507415771E-1,1.392623901E0,6.788436890E0
4.961612806E1,-6.986999512E-1,1.799407959E0,6.695114136E0
4.966612806E1,-1.531372070E-1,1.957336426E0,7.922637939E0
4.971612806E1,-5.981445312E-2,1.301696777E0,9.846466064E0
4.976612806E1,5.407714844E-1,4.833526611E-1,1.368215942E1
4.981612806E1,-4.067993164E-2,1.782653809E0,1.280400085E1
4.986612806E1,1.641479492E0,1.342376709E0,1.219143677E1
4.991612806E1,-6.221313477E-1,2.847442627E-1,1.122952271E1
4.996612806E1,-6.006011963E-1,2.440643311E-1,8.439483643E0
5.001612806E1,-2.177429199E-1,7.058868408E-1,8.549560547E0
5.006612806E1,-9.188385010E-1,1.440475464E0,6.498901367E0
5.011612806E1,-7.369842529E-1,1.847259521E0,7.063613892E0
5.016612806E1,2.153472900E-1,2.316253662E0,9.542572021E0
5.021612806E1,1.340026855E-1,1.830505371E0,1.081317139E1
5.026612806E1,2.368927002E-1,1.016952515E0,1.422532654E1
5.031612806E1,1.184448242E0,2.806777954E0,1.102851868E1
5.036612806E1,1.435699463E-1,-1.363983154E-1,1.425164795E1
5.041612806E1,-4.331054688E-1,-5.001068115E-1,1.086819458E1
5.046612806E1,2.297058105E-1,3.397827148E-1,7.939392090E0
5.051612806E1,-5.264282227E-1,6.364898682E-1,7.001403809E0
5.056612806E1,-4.977111816E-1,1.421340942E0,6.221343994E0
5.061612806E1,-1.146163940E0,1.490722656E0,7.164108276E0
5.066612806E1,-8.829498291E-1,1.351943970E0,9.451644897E0
5.071612806E1,9.809875488E-2,9.260253906E-1,1.311027527E1
5.076612806E1,6.508483887E-1,1.057632446E0,1.397409058E1
5.081612806E1,1.950149536E0,1.036087036E0,1.156211853E1
5.086612806E1,6.221008301E-2,-9.332275391E-2,1.477807617E1
5.091612806E1,9.499511719E-1,5.264282227E-1,8.841476440E0
5.096612806E1,1.502685547E0,8.805541992E-1,8.317459106E0
5.101612806E1,2.440643311E-1,1.301696777E0,5.670989990E0
5.106612806E1,1.411743164E-1,1.969299316E0,6.039489746E0
5.111612806E1,4.522399902E-1,1.753936768E0,8.707489014E0
5.116612806E1,1.335189819E0,2.148757935E0,1.111944580E1
5.121612806E1,1.818542480E-1,1.359130859E0,1.302174377E1
5.126612806E1,1.746826172E-1,1.945358276E0,1.224168396E1
5.131612806E1,1.253845215E0,-3.900299072E-1,1.595533752E1
5.136612806E1,-5.958099365E-1,-4.115600586E-1,1.057627869E1
5.141612806E1,-9.044799805E-1,2.703857422E-1,8.470596313E0
5.146612806E1,-2.895355225E-1,1.021728516E0,7.077972412E0
5.151612806E1,5.718841553E-1,1.643875122E0,6.010772705E0
5.156612806E1,-3.732757568E-1,1.753936768E0,7.070785522E0
5.161612806E1,3.110656738E-1,2.012359619E0,9.200408936E0
5.166612806E1,3.661041260E-1,8.853454590E-1,1.222013855E1
5.171612806E1,9.738769531E-1,7.609100342E-1,1.379223633E1
5.176612806E1,1.050445557E0,1.411758423E0,1.106680298E1
5.181612806E1,1.698913574E-1,6.436767578E-1,1.334237671E1
5.186612806E1,1.866455078E-1,-7.896423340E-2,9.075973511E0
5.191612806E1,1.265808105E0,4.259185791E-1,8.970687866E0
5.196612806E1,2.321014404E-1,1.167694092E0,6.994216919E0
5.201612806E1,-3.134613037E-1,1.739578247E0,6.166305542E0
5.206612806E1,7.896423340E-2,2.045867920E0,8.279159546E0
5.211612806E1,6.077728271E-1,1.907073975E0,1.068873596E1
5.216612806E1,4.139556885E-1,1.110275269E0,1.306002808E1
5.221612806E1,9.020996094E-1,2.024322510E0,1.320837402E1
5.226612806E1,2.347366333E0,6.029968262E-1,1.207418823E1
5.231612806E1,2.727813721E-1,-4.043884277E-1,1.258146667E1
5.236612806E1,-4.594268799E-1,2.392883301E-1,8.834304810E0
5.241612806E1,-1.483612061E-1,6.364898682E-1,6.793228149E0
5.246612806E1,4.905242920E-1,1.643875122E0,6.805191040E0
5.251612806E1,-7.680969238E-1,1.392623901E0,6.936798096E0
5.256612806E1,-1.842498779E-1,1.543365479E0,8.736190796E0
5.261612806E1,9.809875488E-2,1.083953857E0,1.133958435E1
5.266612806E1,2.344970703E-1,5.958099365E-1,1.322752380E1
5.271612806E1,1.129409790E0,1.237091064E0,1.133718872E1
5.276612806E1,1.028900146E-1,1.387786865E-1,1.546481323E1
5.281612806E1,8.638153076E-1,-1.675415039E-2,1.040638733E1
5.286612806E1,1.720443726E0,3.876342773E-1,7.733596802E0
5.291612806E1,8.015899658E-1,1.215560913E0,7.042083740E0
5.296612806E1,9.332275391E-2,1.447662354E0,5.986846924E0
5.301612806E1,-7.171630859E-3,1.885543823E0,8.207382202E0
5.306612806E1,5.192413330E-1,1.873580933E0,9.834503174E0
5.311612806E1,4.642028809E-1,1.801788330E0,1.225125122E1
5.316612806E1,9.567260742E-3,1.282546997E0,1.459382629E1
5.321612806E1,-4.713897705E-1,2.270782471E0,1.053320312E1
5.326612806E1,-1.007385254E0,8.829498291E-1,1.203111267E1
5.331612806E1,-1.411743164E-1,1.435699463E-1,9.712463379E0
5.336612806E1,-5.455627441E-1,2.775726318E-1,8.224136353E0
5.341612806E1,2.033843994E-1,8.997039795E-1,6.675979614E0
5.346612806E1,-6.245269775E-1,1.134201050E0,6.783645630E0
5.351612806E1,-1.698913574E-1,1.775466919E0,7.444076538E0
5.356612806E1,-2.608184814E-1,1.694122314E0,9.573684692E0
5.361612806E1,9.332275391E-2,7.609100342E-1,1.191625977E1
5.366612806E1,-2.560272217E-1,1.270584106E0,1.377308655E1
5.371612806E1,4.594268799E-1,1.363983154E-1,1.307199097E1
5.376612806E1,-6.508483887E-1,-1.036087036E0,1.353379822E1
5.381612806E1,1.354339600E0,2.344970703E-1,8.726623535E0
5.386612806E1,-2.464599609E-1,8.757781982E-1,9.257827759E0
5.391612806E1,-7.465667725E-1,1.718048096E0,4.788040161E0
5.396612806E1,-1.404586792E0,1.732406616E0,6.781265259E0
5.401612806E1,-1.052856445E-1,2.091323853E0,8.889343262E0
5.406612806E1,-1.674957275E-1,1.806579590E0,1.132283020E1
5.411612806E1,5.072784424E-1,1.284942627E0,1.308874512E1
5.416612806E1,-7.728881836E-1,2.117645264E0,1.154776001E1
5.421612806E1,7.992095947E-1,-1.914215088E-1,1.583091736E1
5.426612806E1,-6.269226074E-1,1.818542480E-1,9.186050415E0
5.431612806E1,-1.055236816E0,-3.828430176E-2,9.822540283E0
5.436612806E1,-6.221313477E-1,8.255310059E-1,6.898513794E0
5.441612806E1,-9.714813232E-1,1.521835327E0,5.778671265E0
5.446612806E1,-6.963043213E-1,2.019546509E0,6.257232666E0
5.451612806E1,-7.250213623E-1,1.861618042E0,9.126220703E0
5.456612806E1,-1.938171387E-1,1.445266724E0,1.149990845E1
5.461612806E1,-2.703857422E-1,8.303070068E-1,1.414875793E1
5.466612806E1,3.397827148E-1,1.378265381E0,1.128216553E1
5.471612806E1,-6.819610596E-1,-5.575256348E-1,1.673539734E1
5.476612806E1,-7.800598145E-1,-2.943115234E-1,9.054443359E0
5.481612806E1,1.000198364E0,2.679901123E-1,5.819351196E0
5.486612806E1,2.703857422E-1,7.202453613E-1,7.740783691E0
5.491612806E1,-5.886383057E-1,8.638153076E-1,6.008377075E0
5.496612806E1,2.871704102E-2,1.789825439E0,8.841476440E0
5.501612806E1,4.791259766E-3,1.607971191E0,1.053320312E1
5.506612806E1,4.785156250E-2,1.371093750E0,1.302891541E1
5.511612806E1,-1.674957275E-1,1.543365479E0,1.222013855E1
5.516612806E1,3.756713867E-1,1.818542480E0,1.061216736E1
5.521612806E1,-9.906311035E-1,-3.038940430E-1,1.521595764E1
5.526612806E1,-4.091796875E-1,6.939697266E-2,9.135803223E0
5.531612806E1,-3.397827148E-1,5.383911133E-1,7.484756470E0
5.536612806E1,1.674957275E-1,8.949127197E-1,5.984451294E0
5.541612806E1,-2.703857422E-1,1.205978394E0,7.975280762E0
5.546612806E1,-2.464599609E-1,1.466796875E0,9.286544800E0
5.551612806E1,-4.618072510E-1,1.380661011E0,1.153819275E1
5.556612806E1,-7.417297363E-2,1.234695435E0,1.174876404E1
5.561612806E1,-7.298126221E-1,1.825729370E0,1.217228699E1
5.566612806E1,4.905242920E-1,1.356735229E0,1.241397095E1
5.571612806E1,-3.349914551E-1,-7.346038818E-1,1.156211853E1
5.576612806E1,1.524230957E0,6.747741699E-1,8.209777832E0
5.581612806E1,-2.344970703E-1,9.212341309E-1,9.097518921E0
5.586612806E1,-3.254241943E-1,1.722839355E0,5.998809814E0
5.591612806E1,-3.349914551E-1,2.146362305E0,8.068603516E0
5.596612806E1,2.679901123E-1,2.282745361E0,8.884552002E0
5.601612806E1,1.555328369E-1,2.474182129E0,1.176072693E1
5.606612806E1,3.110656738E-1,1.586441040E0,1.294757080E1
5.611612806E1,-1.179656982E0,2.385650635E0,1.118165588E1
5.616612806E1,-2.321014404E-1,3.445739746E-1,1.453639221E1
5.621612806E1,-2.464599609E-1,-6.460571289E-2,9.576080322E0
5.626612806E1,-3.661041260E-1,5.264282227E-1,8.327026367E0
5.631612806E1,-5.264282227E-2,1.040878296E0,6.563507080E0
5.636612806E1,-3.062744141E-1,1.663009644E0,6.046661377E0
5.641612806E1,-1.938171387E-1,1.873580933E0,7.659423828E0
5.646612806E1,-1.196441650E-1,2.007583618E0,9.839294434E0
5.651612806E1,-1.340026855E-1,1.397415161E0,1.282553101E1
5.656612806E1,8.135986328E-2,1.519439697E0,1.410090637E1
5.661612806E1,1.512268066E0,1.454833984E0,1.087777710E1
5.666612806E1,-6.963043213E-1,-3.278198242E-1,1.352902222E1
5.671612806E1,5.718841553E-1,7.346038818E-1,8.604583740E0
5.676612806E1,2.991027832E-1,1.002593994E0,9.221939087E0
5.681612806E1,-5.814514160E-1,1.691726685E0,5.331207275E0
5.686612806E1,-5.479583740E-1,2.404785156E0,7.185653687E0
5.691612806E1,1.890258789E-1,2.598602295E0,9.135803223E0
5.696612806E1,1.124572754E-1,2.309066772E0,1.138505554E1
5.701612806E1,3.349914551E-1,2.153533936E0,1.309591675E1
5.706612806E1,-7.992095947E-1,2.426315308E0,1.205503845E1
5.711612806E1,8.590240479E-1,9.451599121E-1,1.386161804E1
5.716612806E1,-1.227523804E0,3.995971680E-1,8.731414795E0
5.721612806E1,-7.322082520E-1,6.484527588E-1,9.078369141E0
5.726612806E1,-4.355010986E-1,9.451599121E-1,7.731216431E0
5.731612806E1,-6.867370605E-1,1.670196533E0,6.558731079E0
5.736612806E1,-1.148529053E-1,2.108078003E0,7.051651001E0
5.741612806E1,5.503845215E-2,2.043472290E0,9.387039185E0
5.746612806E1,-1.531372070E-1,9.786682129E-1,1.310070801E1
5.751612806E1,4.402770996E-1,1.316055298E0,1.265324402E1
5.756612806E1,4.450683594E-1,1.883148193E0,1.060737610E1
5.761612806E1,-4.546356201E-1,4.642028809E-1,1.426123047E1
5.766612806E1,4.378814697E-1,1.938171387E-1,9.597610474E0
5.771612806E1,1.138977051E0,1.124633789E0,8.839080811E0
5.776612806E1,-3.661041260E-1,1.531402588E0,5.618347168E0
5.781612806E1,-9.044799805E-1,1.873580933E0,6.154342651E0
5.786612806E1,-5.503845215E-2,2.555541992E0,8.128417969E0
5.791612806E1,-3.110656738E-1,2.110473633E0,1.063369751E1
5.796612806E1,6.125640869E-1,1.864013672E0,1.362234497E1
5.801612806E1,4.977111816E-1,2.289932251E0,1.294757080E1
5.806612806E1,8.231353760E-1,1.160522461E0,1.337348938E1
5.811612806E1,3.278198242E-1,-1.268157959E-1,1.297387695E1
5.816612806E1,-9.810638428E-1,4.522399902E-1,8.523239136E0
5.821612806E1,-7.992095947E-1,6.532440186E-1,7.496719360E0
5.826612806E1,-6.460571289E-2,1.378265381E0,5.321640015E0
5.831612806E1,-5.407714844E-1,1.301696777E0,6.714263916E0
5.836612806E1,3.541412354E-1,1.682159424E0,7.884353638E0
5.841612806E1,3.302154541E-1,1.942977905E0,1.011207581E1
5.846612806E1,8.135528564E-1,1.794616699E0,1.200958252E1
5.851612806E1,5.910339355E-1,2.086547852E0,1.335673523E1
5.856612806E1,1.217941284E0,1.464401245E0,1.171047974E1
5.861612806E1,2.871704102E-2,-4.307098389E-1,1.482592773E1
5.866612806E1,1.514663696E0,7.154541016E-1,7.551742554E0
5.871612806E1,1.095916748E0,1.746765137E0,7.759918213E0
5.876612806E1,-7.656860352E-2,1.557723999E0,5.568099976E0
5.881612806E1,-7.489471436E-1,1.909469604E0,6.910476685E0
5.886612806E1,5.240325928E-1,2.287536621E0,9.568893433E0
5.891612806E1,4.977111816E-1,1.842468262E0,1.175354004E1
5.896612806E1,8.087768555E-1,1.610366821E0,1.357926941E1
5.901612806E1,1.531372070E-1,2.392822266E0,1.192582703E1
5.906612806E1,1.057632446E0,5.766754150E-1,1.428276062E1
5.911612806E1,-3.397827148E-1,-1.914215088E-1,9.906280518E0
5.916612806E1,-2.249298096E-1,-2.392883301E-1,9.358322144E0
5.921612806E1,1.076812744E-1,6.077728271E-1,7.183258057E0
5.926612806E1,1.220397949E-1,1.170089722E0,5.544174194E0
5.931612806E1,4.043884277E-1,1.485946655E0,6.159118652E0
5.936612806E1,2.727813721E-1,1.911865234E0,8.726623535E0
5.941612806E1,3.708801270E-1,1.081558228E0,1.235174561E1
5.946612806E1,1.299301147E0,1.028915405E0,1.395733643E1
5.951612806E1,3.972015381E-1,1.493118286E0,1.209811401E1
5.956612806E1,5.503845215E-2,7.896423340E-2,1.625444031E1
5.961612806E1,1.316070557E-1,-2.153472900E-1,9.970886230E0
5.966612806E1,2.277969360E0,7.465667725E-1,8.788833618E0
5.971612806E1,6.149597168E-1,1.115051270E0,6.731002808E0
5.976612806E1,-1.098312378E0,1.122238159E0,5.187637329E0
5.981612806E1,-2.010040283E-1,1.792221069E0,6.979858398E0
5.986612806E1,4.642028809E-1,2.091323853E0,9.250656128E0
5.991612806E1,1.914215088E-1,2.038681030E0,1.231825256E1
5.996612806E1,1.143768311E0,1.957336426E0,1.356730652E1
6.001612806E1,-1.818542480E-1,2.634490967E0,1.114097595E1
6.006612806E1,7.250213623E-1,6.771697998E-1,1.441914368E1
6.011612806E1,-5.216369629E-1,2.464599609E-1,9.332015991E0
6.016612806E1,-4.665985107E-1,6.221008301E-2,8.571090698E0
6.021612806E1,2.991027832E-1,9.068756104E-1,7.965713501E0
6.026612806E1,-2.799530029E-1,1.538589478E0,6.163909912E0
6.031612806E1,-1.387786865E-1,1.875976562E0,7.204788208E0
6.036612806E1,-1.316070557E-1,1.739578247E0,9.284149170E0
6.041612806E1,-3.565368652E-1,1.069595337E0,1.151904297E1
6.046612806E1,3.900299072E-1,1.045669556E0,1.301934814E1
6.051612806E1,1.091125488E0,1.117446899E0,1.127020264E1
6.056612806E1,3.349304199E-2,-1.938171387E-1,1.692683411E1
6.061612806E1,1.239486694E0,7.776641846E-1,9.032897949E0
6.066612806E1,2.105682373E0,1.110275269E0,7.042083740E0
6.071612806E1,-9.809875488E-2,1.268188477E0,7.582855225E0
6.076612806E1,-6.293182373E-1,1.399795532E0,6.443878174E0
6.081612806E1,4.355010986E-1,2.088928223E0,7.881958008E0
6.086612806E1,1.055236816E0,2.270782471E0,1.025802612E1
6.091612806E1,8.973083496E-1,1.844863892E0,1.205743408E1
6.096612806E1,6.939239502E-1,1.792221069E0,1.283270264E1
6.101612806E1,-5.743408203E-2,2.344970703E0,1.009292603E1
6.106612806E1,4.019927979E-1,3.732757568E-1,1.543849182E1
6.111612806E1,8.613586426E-2,5.694885254E-1,8.987442017E0
6.116612806E1,2.392883301E-1,3.708801270E-1,8.092529297E0
6.121612806E1,6.580200195E-1,1.464401245E0,7.298110962E0
6.126612806E1,4.791259766E-3,1.600799561E0,6.477371216E0
6.131612806E1,1.914978027E-2,1.825729370E0,7.886749268E0
6.136612806E1,-1.962127686E-1,1.560119629E0,9.973281860E0
6.141612806E1,4.977111816E-1,1.476364136E0,1.365583801E1
6.146612806E1,2.488555908E-1,1.902297974E0,1.294277954E1
6.151612806E1,1.129409790E0,1.698898315E0,1.005703735E1
6.156612806E1,1.067199707E0,-5.168457031E-1,1.413919067E1
6.161612806E1,1.390228271E0,5.886383057E-1,7.793426514E0
6.166612806E1,6.388854980E-1,9.571228027E-1,8.513656616E0
6.171612806E1,-6.460571289E-2,1.887939453E0,6.034698486E0
6.176612806E1,-6.436767578E-1,2.112869263E0,6.939178467E0
6.181612806E1,6.556396484E-1,2.435897827E0,1.004747009E1
6.186612806E1,2.297058105E-1,2.469390869E0,1.062652588E1
6.191612806E1,9.284210205E-1,1.983642578E0,1.356491089E1
6.196612806E1,1.028900146E-1,2.706283569E0,1.172721863E1
6.201612806E1,3.182525635E-1,8.877410889E-1,1.417268372E1
6.206612806E1,-5.048828125E-1,3.900299072E-1,9.367904663E0
6.211612806E1,2.464599609E-1,5.551300049E-1,9.092727661E0
6.216612806E1,2.919311523E-1,9.164581299E-1,7.893920898E0
6.221612806E1,-5.264282227E-2,1.304092407E0,6.386444092E0
6.226612806E1,-5.742797852E-1,1.868789673E0,6.642471313E0
6.231612806E1,7.177734375E-2,2.036285400E0,8.669189453E0
6.236612806E1,3.661041260E-1,1.768295288E0,1.190190125E1
6.241612806E1,9.475555420E-1,1.701293945E0,1.428755188E1
6.246612806E1,5.718841553E-1,2.275573730E0,1.069830322E1
6.251612806E1,5.670928955E-1,8.733825684E-1,1.449093628E1
6.256612806E1,2.057800293E-1,3.708801270E-1,9.741180420E0
6.261612806E1,1.397415161E0,9.714813232E-1,7.135391235E0
6.266612806E1,8.613586426E-2,1.423736572E0,7.252639771E0
6.271612806E1,-8.709869385E-1,1.560119629E0,6.613769531E0
6.276612806E1,-8.135986328E-2,2.230117798E0,9.092727661E0
6.281612806E1,4.977111816E-1,2.557922363E0,9.511474609E0
6.286612806E1,1.842498779E-1,1.806579590E0,1.266760254E1
6.291612806E1,5.240325928E-1,1.576873779E0,1.335913086E1
6.296612806E1,-3.038940430E-1,2.258819580E0,1.057627869E1
6.301612806E1,3.397827148E-1,6.484527588E-1,1.347398376E1
6.306612806E1,2.225341797E-1,3.900299072E-1,9.382263184E0
6.311612806E1,-6.460571289E-2,6.939239502E-1,8.276779175E0
6.316612806E1,-2.273254395E-1,9.116668701E-1,7.211975098E0
6.321612806E1,-4.043884277E-1,1.031311035E0,6.613769531E0
6.326612806E1,-3.565368652E-1,1.337585449E0,7.535003662E0
6.331612806E1,-4.791259766E-3,1.904693604E0,1.077488708E1
6.336612806E1,-2.584228516E-1,1.430908203E0,1.191146851E1
6.341612806E1,-1.363983154E-1,1.890335083E0,1.304327393E1
6.346612806E1,1.366302490E0,1.505081177E0,1.072224426E1
6.351612806E1,-4.402770996E-1,1.124572754E-1,1.432344055E1
6.356612806E1,1.122238159E0,1.674957275E-1,7.999206543E0
6.361612806E1,1.462020874E0,8.279113770E-1,1.126541138E1
6.366612806E1,7.171630859E-3,1.383056641E0,5.699707031E0
6.371612806E1,-7.920227051E-1,2.136795044E0,5.900695801E0
6.376612806E1,3.134613037E-1,2.445465088E0,8.080566406E0
6.381612806E1,7.010955811E-1,2.043472290E0,1.083230591E1
6.386612806E1,4.211425781E-1,1.911865234E0,1.371327209E1
6.391612806E1,-6.723785400E-1,2.306686401E0,1.217228699E1
6.396612806E1,1.138977051E0,1.263412476E0,1.294277954E1
6.401612806E1,-3.828582764E-1,-1.914978027E-2,1.109552002E1
6.406612806E1,-6.364898682E-1,3.230285645E-1,8.319839478E0
6.411612806E1,-6.293182373E-1,4.259185791E-1,7.326828003E0
6.416612806E1,-7.274169922E-1,1.088729858E0,6.690338135E0
6.421612806E1,-7.872314453E-1,1.186843872E0,7.214355469E0
6.426612806E1,-7.513427734E-1,2.086547852E0,8.884552002E0
6.431612806E1,-4.426727295E-1,1.861618042E0,1.116012573E1
6.436612806E1,3.014984131E-1,1.371093750E0,1.341656494E1
6.441612806E1,-4.259185791E-1,1.964508057E0,1.232304382E1
6.446612806E1,8.757781982E-1,7.226257324E-1,1.073420715E1
6.451612806E1,-2.344970703E-1,-1.021728516E0,1.402194214E1
6.456612806E1,9.379882812E-1,1.050445557E0,7.300506592E0
6.461612806E1,5.359954834E-1,1.366302490E0,8.233703613E0
6.466612806E1,-4.355010986E-1,1.280166626E0,6.032302856E0
6.471612806E1,-5.168457031E-1,1.564910889E0,7.393829346E0
6.476612806E1,3.995971680E-1,1.847259521E0,9.803390503E0
6.481612806E1,1.651000977E-1,1.730010986E0,1.193061829E1
6.486612806E1,9.643096924E-1,1.794616699E0,1.377069092E1
6.491612806E1,5.934143066E-1,2.713455200E0,1.123669434E1
6.496612806E1,5.240325928E-1,2.632141113E-1,1.448854065E1
6.501612806E1,-4.283142090E-1,4.139556885E-1,8.358123779E0
6.506612806E1,-4.522399902E-1,5.981445312E-2,9.410964966E0
6.511612806E1,-2.823486328E-1,7.441711426E-1,6.556335449E0
6.516612806E1,-7.178497314E-1,1.246658325E0,5.991622925E0
6.521612806E1,-4.474639893E-1,1.739578247E0,6.666397095E0
6.526612806E1,6.125640869E-1,2.177474976E0,1.007139587E1
6.531612806E1,3.086700439E-1,1.399795532E0,1.251686096E1
6.536612806E1,7.226257324E-1,1.820938110E0,1.335194397E1
6.541612806E1,1.366302490E0,1.792221069E0,1.230389404E1
6.546612806E1,-1.004943848E-1,-7.656860352E-2,1.448136902E1
6.551612806E1,9.140625000E-1,4.067993164E-2,7.668991089E0
6.556612806E1,1.359130859E0,5.359954834E-1,8.774475098E0
6.561612806E1,-2.751770020E-1,6.819610596E-1,7.066009521E0
6.566612806E1,-9.308013916E-1,1.433303833E0,6.396011353E0
6.571612806E1,2.608184814E-1,1.895111084E0,8.927627563E0
6.576612806E1,8.949127197E-1,1.873580933E0,1.090887451E1
6.581612806E1,8.973083496E-1,1.605590820E0,1.319403076E1
6.586612806E1,3.062744141E-1,1.746765137E0,1.252403259E1
6.591612806E1,1.387832642E0,1.316070557E-1,1.294995117E1
6.596612806E1,5.694885254E-1,6.077728271E-1,1.003311157E1
6.601612806E1,-6.340942383E-1,1.292114258E-1,9.702896118E0
6.606612806E1,5.743408203E-2,6.676025391E-1,8.800796509E0
6.611612806E1,2.632141113E-2,1.294509888E0,5.970092773E0
6.616612806E1,5.503845215E-2,1.864013672E0,6.687942505E0
6.621612806E1,4.378814697E-1,2.227722168E0,9.403793335E0
6.626612806E1,-4.307556152E-2,1.629516602E0,1.236849976E1
6.631612806E1,1.194015503E0,1.514663696E0,1.332324219E1
6.636612806E1,9.809875488E-2,1.603195190E0,1.151904297E1
6.641612806E1,5.024871826E-1,8.638153076E-1,1.312223816E1
6.646612806E1,-4.785614014E-1,-9.475555420E-1,1.230868530E1
6.651612806E1,1.265808105E0,4.713897705E-1,7.018142700E0
6.656612806E1,8.015899658E-1,1.607971191E0,7.159332275E0
6.661612806E1,-2.656097412E-1,1.459625244E0,5.716461182E0
6.666612806E1,-3.038940430E-1,1.899902344E0,7.791030884E0
6.671612806E1,7.298126221E-1,2.404785156E0,1.000439453E1
6.676612806E1,4.905242920E-1,2.490921021E0,1.173680115E1
6.681612806E1,7.680969238E-1,2.277969360E0,1.278724670E1
6.686612806E1,-2.129669189E-1,2.811569214E0,1.097587585E1
6.691612806E1,1.107879639E0,9.427795410E-1,1.317008972E1
6.696612806E1,2.416687012E-1,9.092712402E-2,1.047816467E1
6.701612806E1,-1.483612061E-1,3.134613037E-1,7.554138184E0
6.706612806E1,-3.995971680E-1,9.164581299E-1,7.422531128E0
6.711612806E1,2.033843994E-1,1.581649780E0,6.786041260E0
6.716612806E1,3.541412354E-1,2.060226440E0,8.348556519E0
6.721612806E1,5.742797852E-1,2.455032349E0,9.365509033E0
6.726612806E1,4.785614014E-1,1.859222412E0,1.184686279E1
6.731612806E1,6.340942383E-1,1.588836670E0,1.278005981E1
6.736612806E1,1.292129517E0,9.643096924E-1,1.192343140E1
6.741612806E1,-3.230285645E-1,-2.799530029E-1,1.634776306E1
6.746612806E1,1.019348145E0,7.298126221E-1,7.735992432E0
6.751612806E1,2.617752075E0,1.390228271E0,6.451049805E0
6.756612806E1,3.588867188E-2,1.074371338E0,7.391433716E0
6.761612806E1,-5.599212646E-1,1.600799561E0,5.860015869E0
6.766612806E1,5.168457031E-1,2.081756592E0,7.932205200E0
6.771612806E1,7.776641846E-1,2.263610840E0,1.032981873E1
6.776612806E1,8.518524170E-1,1.739578247E0,1.362234497E1
6.781612806E1,4.929199219E-1,2.593826294E0,1.222492981E1
6.786612806E1,1.605590820E0,6.125640869E-1,1.455314636E1
6.791612806E1,5.694885254E-1,-3.780670166E-1,1.147598267E1
6.796612806E1,-6.221313477E-1,3.014984131E-1,8.817550659E0
6.801612806E1,-1.674957275E-1,2.967071533E-1,8.709869385E0
6.806612806E1,-2.679901123E-1,1.009765625E0,6.118453979E0
6.811612806E1,-6.604156494E-1,1.438079834E0,6.329010010E0
6.816612806E1,3.661041260E-1,2.306686401E0,7.963317871E0
6.821612806E1,-1.627044678E-1,1.517044067E0,1.050210571E1
6.826612806E1,3.924255371E-1,1.569686890E0,1.256950378E1
6.831612806E1,1.651000977E-1,2.148757935E0,1.404347229E1
6.836612806E1,2.170288086E0,8.207397461E-1,1.485943604E1
6.841612806E1,7.968139648E-1,-9.954071045E-1,1.054039001E1
6.846612806E1,1.981262207E0,-2.895355225E-1,1.015513611E1
6.851612806E1,8.327026367E-1,4.091796875E-1,7.432113647E0
6.856612806E1,-5.743408203E-2,1.265808105E0,5.144561768E0
6.861612806E1,-2.967071533E-1,1.988433838E0,6.278762817E0
6.866612806E1,2.057800293E-1,2.483749390E0,8.740982056E0
6.871612806E1,3.302154541E-1,2.749359131E0,1.145922852E1
6.876612806E1,9.643096924E-1,1.780258179E0,1.415354919E1
6.881612806E1,-4.547119141E-2,2.483749390E0,1.167457581E1
6.886612806E1,8.398742676E-1,5.001068115E-1,1.254795837E1
6.891612806E1,5.623168945E-1,1.220397949E-1,1.013839722E1
6.896612806E1,6.125640869E-1,7.896423340E-2,9.360717773E0
6.901612806E1,1.914978027E-2,6.364898682E-1,8.204986572E0
6.906612806E1,2.967071533E-1,1.763504028E0,5.836090088E0
6.911612806E1,2.368927002E-1,1.789825439E0,7.197616577E0
6.916612806E1,4.953155518E-1,2.225326538E0,9.655044556E0
6.921612806E1,4.187469482E-1,1.519439697E0,1.128454590E1
6.926612806E1,9.403839111E-1,1.062408447E0,1.356011963E1
6.931612806E1,2.799530029E-1,2.079360962E0,1.171286011E1
6.936612806E1,1.349548340E0,1.177261353E0,1.254556274E1
6.941612806E1,4.689941406E-1,-4.833526611E-1,1.089451599E1
6.946612806E1,1.825729370E0,4.043884277E-1,9.298507690E0
6.951612806E1,6.532440186E-1,1.344772339E0,7.530212402E0
6.956612806E1,-2.823486328E-1,1.933395386E0,5.161315918E0
6.961612806E1,-1.986083984E-1,2.414352417E0,7.470397949E0
6.966612806E1,5.120697021E-1,2.543563843E0,1.007139587E1
6.971612806E1,6.364898682E-1,1.954940796E0,1.320599365E1
6.976612806E1,1.225128174E0,1.653442383E0,1.384248352E1
6.981612806E1,4.791259766E-3,2.356933594E0,1.007139587E1
6.986612806E1,7.393798828E-1,3.852386475E-1,1.399082947E1
6.991612806E1,2.608184814E-1,2.727813721E-1,9.078369141E0
6.996612806E1,6.029968262E-1,1.316070557E-1,9.025726318E0
7.001612806E1,4.618072510E-1,1.203582764E0,6.996612549E0
7.006612806E1,-5.407714844E-1,1.703689575E0,6.448654175E0
7.011612806E1,-6.939697266E-2,2.206176758E0,7.319641113E0
7.016612806E1,2.153015137E-2,2.136795044E0,9.477966309E0
7.021612806E1,6.340942383E-1,1.452438354E0,1.204307556E1
7.026612806E1,2.656097412E-1,1.320831299E0,1.367259216E1
7.031612806E1,1.363906860E0,1.351943970E0,1.087059021E1
7.036612806E1,1.698913574E-1,-5.743408203E-2,1.506282043E1
7.041612806E1,1.395019531E0,8.853454590E-1,8.544769287E0
7.046612806E1,9.140625000E-1,1.351943970E0,8.386840820E0
7.051612806E1,2.249298096E-1,2.031509399E0,6.089736938E0
7.056612806E1,-3.708801270E-1,2.316253662E0,7.183258057E0
7.061612806E1,5.264282227E-1,2.392822266E0,8.793624878E0
7.066612806E1,2.512512207E-1,2.261215210E0,1.065284729E1
7.071612806E1,5.096740723E-1,2.270782471E0,1.244985962E1
7.076612806E1,6.221008301E-2,2.785247803E0,1.147358704E1
7.081612806E1,1.366302490E0,6.460571289E-1,1.580459595E1
7.086612806E1,-7.704925537E-1,2.679901123E-1,8.951553345E0
7.091612806E1,-6.436767578E-1,7.609100342E-1,9.004196167E0
7.096612806E1,3.302154541E-1,1.098312378E0,7.319641113E0
7.101612806E1,-3.828582764E-1,1.674972534E0,6.448654175E0
7.106612806E1,-4.570312500E-1,1.883148193E0,6.415161133E0
7.111612806E1,1.172485352E-1,2.232498169E0,8.709869385E0
7.116612806E1,2.632141113E-1,1.655838013E0,1.160997009E1
7.121612806E1,1.371093750E0,1.134201050E0,1.408175659E1
7.126612806E1,1.194015503E0,2.304290771E0,1.140658569E1
7.131612806E1,1.177261353E0,1.062408447E0,1.386640930E1
7.136612806E1,4.378814697E-1,-8.375549316E-2,1.074856567E1
7.141612806E1,9.451599121E-1,7.920227051E-1,7.475173950E0
7.146612806E1,6.412811279E-1,1.493118286E0,7.101898193E0
7.151612806E1,9.567260742E-3,1.682159424E0,7.101898193E0
7.156612806E1,6.364898682E-1,2.246856689E0,8.219345093E0
7.161612806E1,6.077728271E-1,2.462219238E0,9.482757568E0
7.166612806E1,6.986999512E-1,2.483749390E0,1.166023254E1
7.171612806E1,1.028915405E0,2.117645264E0,1.358166504E1
7.176612806E1,1.531402588E0,1.103088379E0,1.217228699E1
7.181612806E1,2.632141113E-1,-1.674957275E-1,1.247378540E1
7.186612806E1,6.532440186E-1,9.834442139E-1,8.786437988E0
7.191612806E1,9.690856934E-1,7.585296631E-1,8.982650757E0
7.196612806E1,4.163513184E-1,1.239486694E0,6.491729736E0
7.201612806E1,-1.938171387E-1,1.832901001E0,6.635299683E0
7.206612806E1,6.173553467E-1,2.292327881E0,7.740783691E0
7.211612806E1,4.067840576E-1,2.335388184E0,1.071028137E1
7.216612806E1,9.116668701E-1,1.919036865E0,1.275852966E1
7.221612806E1,6.676025391E-1,1.832901001E0,1.286141968E1
7.226612806E1,1.830505371E0,1.665405273E0,1.042552185E1
7.231612806E1,2.488555908E-1,-2.225341797E-1,1.357447815E1
7.236612806E1,1.483551025E0,6.867370605E-1,7.494323730E0
7.241612806E1,1.380661011E0,9.260253906E-1,9.492324829E0
7.246612806E1,-1.411743164E-1,1.380661011E0,6.139984131E0
7.251612806E1,-1.028900146E-1,2.222930908E0,7.482360840E0
7.256612806E1,6.604156494E-1,2.648849487E0,8.630905151E0
7.261612806E1,1.287338257E0,3.371490479E0,1.060020447E1
7.266612806E1,1.165298462E0,2.584243774E0,1.254795837E1
7.271612806E1,6.699829102E-1,2.510070801E0,1.151666260E1
7.276612806E1,1.667800903E0,6.771697998E-1,1.499102783E1
7.281612806E1,6.364898682E-1,-2.392578125E-2,1.024366760E1
7.286612806E1,7.513427734E-1,4.355010986E-1,9.583251953E0
7.291612806E1,6.915283203E-1,7.657012939E-1,8.245666504E0
7.296612806E1,2.967071533E-1,1.811370850E0,5.831314087E0
7.301612806E1,1.746826172E-1,2.072189331E0,6.410369873E0
7.306612806E1,8.135528564E-1,2.249252319E0,8.865402222E0
7.311612806E1,1.141372681E0,1.574478149E0,1.209571838E1
7.316612806E1,1.969299316E0,1.237091064E0,1.384248352E1
7.321612806E1,8.757781982E-1,1.919036865E0,1.129173279E1
7.326612806E1,9.116668701E-1,1.519439697E0,1.153340149E1
7.331612806E1,2.081756592E-1,-2.871398926E-1,1.077966309E1
7.336612806E1,1.514663696E0,6.986999512E-1,1.011445618E1
7.341612806E1,6.269226074E-1,1.454833984E0,7.451248169E0
7.346612806E1,-1.172485352E-1,2.371292114E0,5.209182739E0
7.351612806E1,1.938171387E-1,2.627319336E0,7.295715332E0
7.356612806E1,7.441711426E-1,2.780456543E0,9.506683350E0
7.361612806E1,7.680969238E-1,2.691925049E0,1.208854675E1
7.366612806E1,1.703689575E0,2.246856689E0,1.398844910E1
7.371612806E1,1.174880981E0,2.567504883E0,1.082034302E1
7.376612806E1,8.781585693E-1,9.809875488E-2,1.479960632E1
7.381612806E1,0.000000000E0,5.766754150E-1,8.654846191E0
7.386612806E1,-4.689941406E-1,6.388854980E-1,8.705093384E0
7.391612806E1,-3.804626465E-1,1.289733887E0,6.288345337E0
7.396612806E1,-4.618072510E-1,1.940582275E0,6.372085571E0
7.401612806E1,-3.182525635E-1,2.297103882E0,6.948760986E0
7.406612806E1,-2.751770020E-1,2.541183472E0,9.394226074E0
7.411612806E1,2.608184814E-1,1.531402588E0,1.283749390E1
7.416612806E1,8.279113770E-1,2.084152222E0,1.307916260E1
7.421612806E1,1.756332397E0,2.254043579E0,1.032502747E1
7.426612806E1,-9.571838379E-2,-1.531372070E-1,1.545524597E1
7.431612806E1,4.498443604E-1,9.738769531E-1,8.291137695E0
7.436612806E1,6.197357178E-1,1.198806763E0,7.939392090E0
7.441612806E1,-3.134613037E-1,1.505081177E0,6.740585327E0
7.446612806E1,-5.503540039E-1,2.105682373E0,6.865005493E0
7.451612806E1,-2.249298096E-1,2.428710938E0,9.166900635E0
7.456612806E1,2.392578125E-2,2.620147705E0,1.041595459E1
7.461612806E1,5.503540039E-1,2.096115112E0,1.323709106E1
7.466612806E1,-2.321014404E-1,2.359329224E0,1.141854858E1
7.471612806E1,1.282546997E0,2.823486328E-1,1.449093628E1
7.476612806E1,-6.221313477E-1,-2.395629883E-3,1.017906189E1
7.481612806E1,6.460571289E-2,5.216369629E-1,9.655044556E0
7.486612806E1,2.560272217E-1,8.733825684E-1,7.592422485E0
7.491612806E1,-2.010040283E-1,1.600799561E0,6.388839722E0
7.496612806E1,1.076812744E-1,1.773086548E0,7.654632568E0
7.501612806E1,-3.397827148E-1,1.871185303E0,8.975479126E0
7.506612806E1,2.943115234E-1,1.607971191E0,1.148794556E1
7.511612806E1,1.033706665E0,1.210769653E0,1.350270081E1
7.516612806E1,1.098312378E0,1.457229614E0,1.079881287E1
7.521612806E1,-2.560272217E-1,-1.435852051E-2,1.675454712E1
7.526612806E1,1.167694092E0,4.689941406E-1,9.815353394E0
7.531612806E1,1.698898315E0,1.210769653E0,8.185852051E0
7.536612806E1,2.871398926E-1,1.629516602E0,6.307479858E0
7.541612806E1,-3.852386475E-1,2.031509399E0,4.409973145E0
7.546612806E1,-3.134613037E-1,2.091323853E0,7.745559692E0
7.551612806E1,1.138977051E0,2.579467773E0,1.086581421E1
7.556612806E1,3.900299072E-1,1.797012329E0,1.238046265E1
7.561612806E1,5.407714844E-1,2.356933594E0,1.307199097E1
7.566612806E1,5.742797852E-1,1.538589478E0,1.083470154E1
7.571612806E1,-3.062744141E-1,1.579284668E-1,1.345005798E1
7.576612806E1,-2.153472900E-1,6.915283203E-1,8.848663330E0
7.581612806E1,-5.192413330E-1,4.450683594E-1,8.087738037E0
7.586612806E1,6.077728271E-1,1.210769653E0,7.341186523E0
7.591612806E1,-2.632141113E-2,1.423736572E0,7.348358154E0
7.596612806E1,-2.225341797E-1,2.151153564E0,8.066207886E0
7.601612806E1,1.794586182E-1,2.416748047E0,9.475585938E0
7.606612806E1,3.302154541E-1,1.605590820E0,1.223689270E1
7.611612806E1,6.508483887E-1,1.514663696E0,1.426600647E1
7.616612806E1,1.435699463E0,1.765899658E0,1.014077759E1
7.621612806E1,-5.216369629E-1,-2.895355225E-1,1.425883484E1
7.626612806E1,4.689941406E-1,5.790557861E-1,8.934799194E0
7.631612806E1,8.590240479E-1,1.660614014E0,7.066009521E0
7.636612806E1,-2.536315918E-1,1.966903687E0,5.795410156E0
7.641612806E1,-3.732757568E-1,2.301895142E0,6.934402466E0
7.646612806E1,1.100769043E-1,1.940582275E0,9.358322144E0
7.651612806E1,5.934143066E-1,2.675170898E0,1.077726746E1
7.656612806E1,8.590240479E-1,2.242080688E0,1.332562256E1
7.661612806E1,2.632141113E-1,2.507675171E0,1.247378540E1
7.666612806E1,4.929199219E-1,1.115051270E0,1.224645996E1
7.671612806E1,-4.881286621E-1,7.058868408E-1,9.650253296E0
7.676612806E1,2.847442627E-1,6.652069092E-1,9.367904663E0
7.681612806E1,5.479583740E-1,6.867370605E-1,8.401199341E0
7.686612806E1,-1.172485352E-1,1.031311035E0,7.676177979E0
7.691612806E1,-2.392578125E-2,2.024322510E0,6.403198242E0
7.696612806E1,-2.823486328E-1,2.215759277E0,7.893920898E0
7.701612806E1,-2.057800293E-1,2.088928223E0,1.082752991E1
7.706612806E1,7.274169922E-1,1.399795532E0,1.425883484E1
7.711612806E1,3.828582764E-1,1.871185303E0,1.185882568E1
7.716612806E1,2.679901123E-1,4.953155518E-1,1.550309753E1
7.721612806E1,9.332275391E-2,2.536315918E-1,1.075813293E1
7.726612806E1,1.205978394E0,1.342376709E0,7.527816772E0
7.731612806E1,-1.196289062E-2,1.737182617E0,6.412765503E0
7.736612806E1,-2.536315918E-1,1.581649780E0,6.458221436E0
7.741612806E1,7.680969238E-1,2.318649292E0,8.496917725E0
7.746612806E1,8.303070068E-1,2.696716309E0,9.408584595E0
7.751612806E1,-7.171630859E-3,2.213363647E0,1.204067993E1
7.756612806E1,2.153472900E-1,2.256439209E0,1.331127930E1
7.761612806E1,-2.919311523E-1,2.622528076E0,1.082752991E1
7.766612806E1,1.627044678E-1,5.383911133E-1,1.463690186E1
7.771612806E1,-4.331054688E-1,8.327026367E-1,9.300903320E0
7.776612806E1,-4.857482910E-1,7.106628418E-1,8.590240479E0
7.781612806E1,8.613586426E-2,1.490722656E0,7.130615234E0
7.786612806E1,-6.843414307E-1,1.627120972E0,6.477371216E0
7.791612806E1,-5.982055664E-1,2.328216553E0,7.161712646E0
7.796612806E1,-5.647125244E-1,2.392822266E0,8.578262329E0
7.801612806E1,-9.567260742E-3,2.076965332E0,1.184925842E1
7.806612806E1,8.374938965E-1,1.768295288E0,1.411286926E1
7.811612806E1,4.307556152E-2,2.103286743E0,1.029870605E1
7.816612806E1,-4.307556152E-2,3.541412354E-1,1.510110474E1
7.821612806E1,-2.512512207E-1,5.981445312E-2,1.013600159E1
7.826612806E1,7.585296631E-1,1.777862549E0,6.417556763E0
7.831612806E1,3.588867188E-2,2.172683716E0,6.546768188E0
7.836612806E1,-2.010040283E-1,1.954940796E0,7.858032227E0
7.841612806E1,-2.249298096E-1,1.847259521E0,8.786437988E0
7.846612806E1,1.363983154E-1,2.627319336E0,9.925430298E0
7.851612806E1,3.948211670E-1,2.880966187E0,1.050210571E1
7.856612806E1,4.355010986E-1,2.701492310E0,1.309114075E1
7.861612806E1,4.235229492E-1,1.299301147E0,1.222972107E1
7.866612806E1,-2.177429199E-1,6.125640869E-1,1.385444641E1
7.871612806E1,-4.378814697E-1,1.182052612E0,8.855834961E0
7.876612806E1,-3.995971680E-1,3.014984131E-1,1.004507446E1
7.881612806E1,-6.676025391E-1,1.244262695E0,5.699707031E0
7.886612806E1,-1.418945312E0,1.911865234E0,6.005981445E0
7.891612806E1,-4.689941406E-1,2.098510742E0,8.145172119E0
7.896612806E1,-5.910339355E-1,2.258819580E0,1.130609131E1
7.901612806E1,-8.733825684E-1,2.371292114E0,1.159800720E1
7.906612806E1,-6.460571289E-2,1.813766479E0,1.308634949E1
7.911612806E1,-2.679901123E-1,2.311462402E0,1.205743408E1
7.916612806E1,4.833526611E-1,1.330413818E0,1.226321411E1
7.921612806E1,-1.000198364E0,7.417297363E-2,9.190826416E0
7.926612806E1,8.446655273E-1,7.393798828E-1,1.012881470E1
7.931612806E1,4.785614014E-1,1.452438354E0,7.003799438E0
7.936612806E1,0.000000000E0,2.244461060E0,5.903091431E0
7.941612806E1,4.067840576E-1,2.711074829E0,7.740783691E0
7.946612806E1,8.733825684E-1,3.144165039E0,1.014556885E1
7.951612806E1,1.603240967E-1,2.529220581E0,1.092802429E1
7.956612806E1,1.184448242E0,2.294723511E0,1.418704224E1
7.961612806E1,-3.732757568E-1,2.402389526E0,1.131565857E1
7.966612806E1,-1.459655762E-1,9.690856934E-1,1.187557983E1
7.971612806E1,1.746826172E-1,-1.651000977E-1,1.116252136E1
7.976612806E1,4.833526611E-1,5.551300049E-1,9.958923340E0
7.981612806E1,-5.359954834E-1,4.211425781E-1,6.223724365E0
7.986612806E1,-8.614196777E-1,1.615158081E0,7.374679565E0
7.991612806E1,-4.331054688E-1,1.849655151E0,8.276779175E0
7.996612806E1,-3.038940430E-1,2.644073486E0,9.798614502E0
8.001612806E1,-1.026519775E0,2.088928223E0,9.279373169E0
8.006612806E1,1.196289062E-2,1.634292603E0,1.424687195E1
8.011612806E1,1.162918091E0,1.191619873E0,1.475175476E1
8.016612806E1,1.268157959E-1,2.751770020E-1,1.460099792E1
8.021612806E1,1.060012817E0,6.197357178E-1,8.752944946E0
8.026612806E1,1.493118286E0,9.236297607E-1,7.281356812E0
8.031612806E1,1.124572754E-1,8.039855957E-1,8.054244995E0
8.036612806E1,-2.632141113E-1,1.373474121E0,6.874572754E0
8.041612806E1,3.302154541E-1,2.038681030E0,8.396408081E0
8.046612806E1,6.077728271E-1,2.663208008E0,9.279373169E0
8.051612806E1,2.943115234E-1,2.435897827E0,1.077488708E1
8.056612806E1,5.647125244E-1,1.959716797E0,1.356491089E1
8.061612806E1,1.507476807E0,1.162918091E0,1.267716980E1
8.066612806E1,1.842498779E-1,2.847442627E-1,1.401237488E1
8.071612806E1,-2.440643311E-1,1.122238159E0,7.508682251E0
8.076612806E1,-3.110656738E-1,6.963043213E-1,8.159530640E0
8.081612806E1,-3.613128662E-1,1.330413818E0,5.843276978E0
8.086612806E1,-1.304092407E0,1.579269409E0,6.936798096E0
8.091612806E1,5.623168945E-1,2.201400757E0,8.537597656E0
8.096612806E1,3.613128662E-1,1.954940796E0,1.089930725E1
8.101612806E1,1.069595337E0,2.349746704E0,1.276092529E1
8.106612806E1,1.550552368E0,2.371292114E0,1.347398376E1
8.111612806E1,6.986999512E-1,2.457427979E0,1.174636841E1
8.116612806E1,8.685913086E-1,1.852050781E0,9.272186279E0
8.121612806E1,-6.795654297E-1,1.196289062E-2,9.119049072E0
8.126612806E1,5.001068115E-1,7.992095947E-1,8.394027710E0
8.131612806E1,2.703857422E-1,1.450057983E0,8.068603516E0
8.136612806E1,1.435852051E-2,2.292327881E0,5.840881348E0
8.141612806E1,-3.732757568E-1,2.172683716E0,7.781463623E0
8.146612806E1,2.943115234E-1,2.708679199E0,1.024366760E1
8.151612806E1,6.700134277E-2,2.079360962E0,1.254078674E1
8.156612806E1,6.628112793E-1,2.117645264E0,1.448374939E1
8.161612806E1,-2.656097412E-1,3.079559326E0,9.997207642E0
8.166612806E1,-3.469543457E-1,5.407714844E-1,1.299302673E1
8.171612806E1,8.566284180E-1,2.895355225E-1,9.877578735E0
8.176612806E1,2.727813721E-1,3.613128662E-1,9.061614990E0
8.181612806E1,1.459655762E-1,8.231353760E-1,6.367294312E0
8.186612806E1,-3.349914551E-1,1.562515259E0,6.120834351E0
8.191612806E1,2.632141113E-2,2.050643921E0,8.118850708E0
8.196612806E1,-1.148529053E-1,2.043472290E0,1.074617004E1
8.201612806E1,4.665985107E-1,1.852050781E0,1.214836121E1
8.206612806E1,7.274169922E-1,1.835296631E0,1.393341064E1
8.211612806E1,7.250213623E-1,1.564910889E0,1.112663269E1
8.216612806E1,-1.459655762E-1,2.273254395E-1,1.244985962E1
8.221612806E1,3.732757568E-1,4.594268799E-1,8.681167603E0
8.226612806E1,1.610366821E0,9.547424316E-1,8.803192139E0
8.231612806E1,5.024719238E-2,1.275375366E0,6.788436890E0
8.236612806E1,7.896423340E-2,2.134399414E0,6.668792725E0
8.241612806E1,4.498443604E-1,2.266006470E0,8.791229248E0
8.246612806E1,3.182525635E-1,2.742172241E0,1.066481018E1
8.251612806E1,1.387786865E-1,2.244461060E0,1.219860840E1
8.256612806E1,9.044799805E-1,1.694122314E0,1.350030518E1
8.261612806E1,4.211425781E-1,2.316253662E0,1.042791748E1
8.266612806E1,4.402770996E-1,4.618072510E-1,1.363670349E1
8.271612806E1,1.459655762E-1,7.680969238E-1,8.250457764E0
8.276612806E1,1.938171387E-1,4.115600586E-1,8.291137695E0
8.281612806E1,1.674957275E-1,1.172485352E0,7.135391235E0
8.286612806E1,-1.076812744E-1,1.749160767E0,7.018142700E0
8.291612806E1,1.962127686E-1,2.218139648E0,7.987243652E0
8.296612806E1,5.312042236E-1,2.139190674E0,1.065524292E1
8.301612806E1,4.043884277E-1,1.799407959E0,1.178225708E1
8.306612806E1,7.274169922E-1,1.933395386E0,1.285902405E1
8.311612806E1,1.071990967E0,1.811370850E0,1.136112976E1
8.316612806E1,-2.775726318E-1,5.264282227E-1,1.337109375E1
8.321612806E1,6.053771973E-1,5.766754150E-1,9.181259155E0
8.326612806E1,1.538589478E0,1.177261353E0,8.291137695E0
8.331612806E1,-3.302154541E-1,1.380661011E0,6.812362671E0
8.336612806E1,-8.231353760E-1,2.074584961E0,6.123229980E0
8.341612806E1,-1.842498779E-1,2.395217896E0,7.984848022E0
8.346612806E1,7.250213623E-1,2.522033691E0,9.891921997E0
8.351612806E1,9.690856934E-1,2.337783813E0,1.264846802E1
8.356612806E1,1.368698120E0,1.923828125E0,1.419183350E1
8.361612806E1,-6.077728271E-1,2.955139160E0,9.068801880E0
8.366612806E1,3.397827148E-1,1.062408447E0,1.282792664E1
8.371612806E1,9.355926514E-1,6.699829102E-1,9.954147339E0
8.376612806E1,-3.493499756E-1,4.665985107E-1,8.267196655E0
8.381612806E1,-7.417755127E-1,1.433303833E0,7.661819458E0
8.386612806E1,-3.493499756E-1,2.160720825E0,6.431915283E0
8.391612806E1,-8.303070068E-1,2.419143677E0,7.721633911E0
8.396612806E1,-6.436767578E-1,2.533996582E0,9.913467407E0
8.401612806E1,-2.823486328E-1,2.103286743E0,1.251924133E1
8.406612806E1,-4.522399902E-1,2.306686401E0,1.303849792E1
8.411612806E1,1.036087036E0,1.708480835E0,1.197129822E1
8.416612806E1,-3.134613037E-1,-3.421783447E-1,1.373959351E1
8.421612806E1,6.508483887E-1,1.134201050E0,7.865203857E0
8.426612806E1,8.949127197E-1,1.406982422E0,6.798004150E0
8.431612806E1,-3.445739746E-1,1.387832642E0,6.690338135E0
8.436612806E1,-5.072784424E-1,2.062606812E0,7.590026855E0
8.441612806E1,1.794586182E-1,2.703887939E0,9.468399048E0
8.446612806E1,5.670928955E-1,3.000595093E0,1.079162598E1
8.451612806E1,9.164581299E-1,2.471786499E0,1.298823547E1
8.456612806E1,2.129669189E-1,2.792419434E0,1.204786682E1
8.461612806E1,6.556396484E-1,-1.866455078E-1,1.528056335E1
8.466612806E1,-1.172485352E-1,5.527496338E-1,8.925231934E0
8.471612806E1,-4.307556152E-2,3.541412354E-1,9.257827759E0
8.476612806E1,-2.536315918E-1,9.954071045E-1,7.027725220E0
8.481612806E1,-7.537384033E-1,1.576873779E0,6.424728394E0
8.486612806E1,1.196441650E-1,2.124832153E0,7.759918213E0
8.491612806E1,4.235229492E-1,2.699096680E0,9.375076294E0
8.496612806E1,-2.967071533E-1,1.904693604E0,1.029870605E1
8.501612806E1,7.800598145E-1,2.301895142E0,1.227278137E1
8.506612806E1,5.718841553E-1,2.392822266E0,1.127258301E1
8.511612806E1,9.331970215E-1,6.053771973E-1,1.581416321E1
8.516612806E1,4.450683594E-1,-2.847442627E-1,1.164825439E1
8.521612806E1,1.143768311E0,7.872314453E-1,8.329421997E0
8.526612806E1,5.072784424E-1,1.430908203E0,7.252639771E0
8.531612806E1,-5.001068115E-1,1.825729370E0,5.225921631E0
8.536612806E1,-7.298126221E-1,2.100891113E0,7.140182495E0
8.541612806E1,7.393798828E-1,2.715850830E0,9.389434814E0
8.546612806E1,2.775726318E-1,2.443069458E0,1.160279846E1
8.551612806E1,1.016952515E0,2.443069458E0,1.303370667E1
8.556612806E1,8.279113770E-1,2.873779297E0,1.020060730E1
8.561612806E1,1.866455078E-1,9.212341309E-1,1.493360901E1
8.566612806E1,-2.967071533E-1,9.355926514E-1,9.834503174E0
8.571612806E1,-6.867370605E-1,4.857482910E-1,8.508880615E0
8.576612806E1,1.148529053E-1,8.542327881E-1,6.302688599E0
8.581612806E1,-3.206329346E-1,1.653442383E0,7.479965210E0
8.586612806E1,-3.134613037E-1,2.234893799E0,7.640289307E0
8.591612806E1,2.273254395E-1,2.543563843E0,1.003071594E1
8.596612806E1,4.450683594E-1,2.416748047E0,1.187078857E1
8.601612806E1,5.694885254E-1,2.105682373E0,1.352183533E1
8.606612806E1,1.722839355E0,2.139190674E0,1.053799438E1
8.611612806E1,-4.785614014E-1,-5.503845215E-2,1.475892639E1
8.616612806E1,4.043884277E-1,6.747741699E-1,8.346160889E0
8.621612806E1,1.296905518E0,1.220336914E0,8.834304810E0
8.626612806E1,-1.914978027E-2,1.696517944E0,5.960525513E0
8.631612806E1,-3.421783447E-1,2.299499512E0,5.735595703E0
8.636612806E1,2.560272217E-1,2.553146362E0,9.200408936E0
8.641612806E1,6.819610596E-1,2.919250488E0,1.067916870E1
8.646612806E1,7.178497314E-1,2.658432007E0,1.330409241E1
8.651612806E1,7.322082520E-1,3.038879395E0,1.235653687E1
8.656612806E1,7.704925537E-1,1.722839355E0,1.138505554E1
8.661612806E1,-3.541412354E-1,3.708801270E-1,1.117926025E1
8.666612806E1,7.177734375E-2,9.930267334E-1,9.547363281E0
8.671612806E1,3.493499756E-1,1.280166626E0,7.185653687E0
8.676612806E1,-3.445739746E-1,1.818542480E0,6.848251343E0
8.681612806E1,-1.794586182E-1,2.069793701E0,7.331604004E0
8.686612806E1,-3.588867188E-2,2.483749390E0,9.399002075E0
8.691612806E1,1.220397949E-1,2.361709595E0,1.097109985E1
8.696612806E1,7.274169922E-1,2.000396729E0,1.253839111E1
8.701612806E1,1.914215088E-1,3.096313477E0,1.171765137E1
8.706612806E1,1.555328369E0,2.141571045E0,1.246899414E1
8.711612806E1,1.531372070E-1,4.307556152E-2,1.162432861E1
8.716612806E1,4.043884277E-1,1.055236816E0,8.233703613E0
8.721612806E1,-2.656097412E-1,1.773086548E0,6.876968384E0
8.726612806E1,-1.007385254E0,2.160720825E0,5.584854126E0
8.731612806E1,-2.512512207E-1,2.682357788E0,8.121246338E0
8.736612806E1,2.249298096E-1,2.828323364E0,1.002832031E1
8.741612806E1,5.120697021E-1,3.122634888E0,1.203111267E1
8.746612806E1,5.742797852E-1,2.347366333E0,1.346919250E1
8.751612806E1,-3.421783447E-1,3.460021973E0,9.705291748E0
8.756612806E1,-5.623168945E-1,6.149597168E-1,1.414636230E1
8.761612806E1,-4.570312500E-1,5.910339355E-1,1.004507446E1
8.766612806E1,2.632141113E-2,7.824554443E-1,8.757736206E0
8.771612806E1,2.560272217E-1,1.763504028E0,6.250045776E0
8.776612806E1,-1.890258789E-1,1.840087891E0,6.838684082E0
8.781612806E1,-2.919311523E-1,2.366500854E0,7.941772461E0
8.786612806E1,-4.091796875E-1,2.380859375E0,1.010968018E1
8.791612806E1,-4.450683594E-1,2.483749390E0,1.208375549E1
8.796612806E1,-5.072784424E-1,2.096115112E0,1.261975098E1
8.801612806E1,2.153472900E-1,2.845062256E0,1.127258301E1
8.806612806E1,7.177734375E-2,1.225128174E0,1.344766235E1
8.811612806E1,1.579284668E-1,5.216369629E-1,9.832107544E0
8.816612806E1,9.188385010E-1,1.739578247E0,7.958526611E0
8.821612806E1,-2.608184814E-1,1.971679688E0,6.728622437E0
8.826612806E1,-1.045669556E0,2.349746704E0,5.802597046E0
8.831612806E1,-6.532440186E-1,2.964706421E0,7.886749268E0
8.836612806E1,-5.503845215E-2,2.880966187E0,9.887145996E0
8.841612806E1,3.661041260E-1,2.361709595E0,1.242831421E1
8.846612806E1,-5.503845215E-2,2.330612183E0,1.262692261E1
8.851612806E1,6.986999512E-1,1.677368164E0,1.250010681E1
8.856612806E1,-1.914215088E-1,7.656860352E-2,1.382093811E1
8.861612806E1,-8.661956787E-1,1.237091064E0,9.078369141E0
8.866612806E1,-7.130584717E-1,1.155731201E0,7.310073853E0
8.871612806E1,-4.594268799E-1,2.033905029E0,6.479766846E0
8.876612806E1,-8.733825684E-1,2.060226440E0,6.537185669E0
8.881612806E1,-6.939239502E-1,2.787643433E0,7.295715332E0
8.886612806E1,-5.072784424E-1,2.222930908E0,1.052363586E1
8.891612806E1,-1.435699463E-1,1.495513916E0,1.340220642E1
8.896612806E1,-8.613586426E-2,2.330612183E0,1.249291992E1
8.901612806E1,-3.254241943E-1,1.014556885E0,1.408415222E1
8.906612806E1,-6.460571289E-1,3.828430176E-2,1.175354004E1
8.911612806E1,1.476364136E0,1.263412476E0,7.965713501E0
8.916612806E1,2.847442627E-1,1.825729370E0,6.841079712E0
8.921612806E1,-1.012161255E0,1.677368164E0,5.603988647E0
8.926612806E1,-2.201385498E-1,2.380859375E0,7.523040771E0
8.931612806E1,1.124572754E-1,2.868988037E0,1.033221436E1
8.936612806E1,8.135986328E-2,2.938385010E0,1.162672424E1
8.941612806E1,4.905242920E-1,2.388031006E0,1.366540527E1
8.946612806E1,-3.206329346E-1,3.132202148E0,1.068634033E1
8.951612806E1,-2.105712891E-1,4.450683594E-1,1.469671631E1
8.956612806E1,-8.781585693E-1,8.877410889E-1,8.427520752E0
8.961612806E1,-2.871704102E-2,6.556396484E-1,9.336791992E0
8.966612806E1,1.531372070E-1,1.143768311E0,6.551544189E0
8.971612806E1,-6.412811279E-1,1.856826782E0,6.125625610E0
8.976612806E1,-1.507415771E-1,2.242080688E0,7.903488159E0
8.981612806E1,-1.220397949E-1,2.306686401E0,1.058345032E1
8.986612806E1,6.460571289E-2,1.816146851E0,1.259820557E1
8.991612806E1,7.657012939E-1,1.964508057E0,1.307199097E1
8.996612806E1,3.230285645E-1,2.323425293E0,1.200000000E1
9.001612806E1,1.155731201E0,1.433303833E0,1.158604431E1
9.006612806E1,-1.196411133E0,2.395629883E-3,9.181259155E0
9.011612806E1,1.105484009E0,7.968139648E-1,9.164505005E0
9.016612806E1,3.349914551E-1,1.619934082E0,7.666610718E0
9.021612806E1,-8.183441162E-1,1.981262207E0,5.446060181E0
9.026612806E1,-5.958099365E-1,2.213363647E0,7.475173950E0
9.031612806E1,4.019927979E-1,2.115249634E0,1.069830322E1
9.036612806E1,2.536315918E-1,1.521835327E0,1.220579529E1
9.041612806E1,6.843414307E-1,1.899902344E0,1.402194214E1
9.046612806E1,2.196609497E0,1.296905518E0,1.392861938E1
9.051612806E1,-6.628112793E-1,7.177734375E-2,1.254795837E1
9.056612806E1,-8.135528564E-1,6.388854980E-1,8.228912354E0
9.061612806E1,-7.776641846E-1,6.556396484E-1,7.365112305E0
9.066612806E1,-2.057800293E-1,1.471588135E0,5.694915771E0
9.071612806E1,-9.595184326E-1,1.655838013E0,7.135391235E0
9.076612806E1,-4.450683594E-1,1.878372192E0,8.762512207E0
9.081612806E1,-1.627044678E-1,1.483551025E0,1.159323120E1
9.086612806E1,3.661041260E-1,1.148559570E0,1.302651978E1
9.091612806E1,4.187469482E-1,1.749160767E0,1.273460388E1
9.096612806E1,1.500305176E0,1.524230957E0,1.052363586E1
9.101612806E1,-6.340942383E-1,-1.148529053E-1,1.183489990E1
9.106612806E1,9.499511719E-1,6.101684570E-1,8.831909180E0
9.111612806E1,1.172485352E-1,1.129409790E0,9.343978882E0
9.116612806E1,-3.134613037E-1,1.777862549E0,5.819351196E0
9.121612806E1,-3.445739746E-1,2.227722168E0,6.731002808E0
9.126612806E1,1.531372070E-1,2.392822266E0,9.279373169E0
9.131612806E1,3.206329346E-1,2.411972046E0,1.118405151E1
9.136612806E1,6.101684570E-1,1.976470947E0,1.331127930E1
9.141612806E1,-3.445739746E-1,2.897705078E0,1.036331177E1
9.146612806E1,-1.340026855E-1,5.264282227E-1,1.392861938E1
9.151612806E1,-7.417297363E-2,1.435699463E-1,1.072462463E1
9.156612806E1,5.503845215E-2,4.402770996E-1,8.738586426E0
9.161612806E1,-4.067840576E-1,9.834442139E-1,7.341186523E0
9.166612806E1,-7.369842529E-1,1.495513916E0,6.254837036E0
9.171612806E1,-2.919311523E-1,1.864013672E0,7.420150757E0
9.176612806E1,-2.273254395E-1,2.086547852E0,9.662216187E0
9.181612806E1,7.417297363E-2,1.500305176E0,1.191146851E1
9.186612806E1,1.153335571E0,9.882354736E-1,1.411526489E1
9.191612806E1,7.633056641E-1,1.931015015E0,1.170568848E1
9.196612806E1,-1.794586182E-1,4.474639893E-1,1.316291809E1
9.201612806E1,-1.220397949E-1,2.608184814E-1,9.200408936E0
9.206612806E1,1.567306519E0,5.718841553E-1,8.910873413E0
9.211612806E1,1.674957275E-1,1.165298462E0,7.506286621E0
9.216612806E1,-2.679901123E-1,1.847259521E0,6.010772705E0
9.221612806E1,3.995971680E-1,2.325820923E0,7.920242310E0
9.226612806E1,2.679901123E-1,2.215759277E0,1.037287903E1
9.231612806E1,9.978027344E-1,2.364105225E0,1.229193115E1
9.236612806E1,7.704925537E-1,1.722839355E0,1.368695068E1
9.241612806E1,5.790557861E-1,2.648849487E0,1.023410034E1
9.246612806E1,1.292114258E-1,1.220397949E-1,1.462014771E1
9.251612806E1,2.392578125E-2,4.139556885E-1,1.029393005E1
9.256612806E1,3.182525635E-1,9.331970215E-1,7.460815430E0
9.261612806E1,4.402770996E-1,1.785049438E0,4.721038818E0
9.266612806E1,-6.293182373E-1,1.907073975E0,6.618545532E0
9.271612806E1,-1.890258789E-1,2.270782471E0,8.262420654E0
9.276612806E1,5.790557861E-1,1.878372192E0,1.178944397E1
9.281612806E1,8.853454590E-1,1.380661011E0,1.303610229E1
9.286612806E1,3.493499756E-1,2.050643921E0,1.224885559E1
9.291612806E1,6.364898682E-1,1.560119629E0,1.255514526E1
9.296612806E1,-3.876342773E-1,-3.613128662E-1,1.190669250E1
9.301612806E1,1.737182617E0,9.092712402E-1,8.628524780E0
9.306612806E1,7.896270752E-1,1.777862549E0,7.972885132E0
9.311612806E1,-3.373870850E-1,2.086547852E0,5.015350342E0
9.316612806E1,-7.704925537E-1,2.368896484E0,6.996612549E0
9.321612806E1,4.547119141E-2,2.878570557E0,9.585647583E0
9.326612806E1,-4.785156250E-2,2.780456543E0,1.181814575E1
9.331612806E1,1.004943848E-1,2.457427979E0,1.358406067E1
9.336612806E1,-5.527496338E-1,3.002990723E0,1.101655579E1
9.341612806E1,-3.469543457E-1,9.092712402E-1,1.467279053E1
9.346612806E1,-2.464599609E-1,1.062408447E0,8.673980713E0
9.351612806E1,-2.656097412E-1,8.566284180E-1,9.047256470E0
9.356612806E1,-5.886383057E-1,1.375869751E0,8.097305298E0
9.361612806E1,-5.910339355E-1,1.792221069E0,6.372085571E0
9.366612806E1,-9.236297607E-1,1.978866577E0,6.726226807E0
9.371612806E1,-4.115600586E-1,2.074584961E0,8.685943604E0
9.376612806E1,-2.751770020E-1,1.576873779E0,1.198326111E1
9.381612806E1,2.033843994E-1,1.428512573E0,1.319880676E1
9.386612806E1,1.074371338E0,2.026718140E0,1.100938416E1
9.391612806E1,-1.485946655E0,5.288085938E-1,1.429711914E1
9.396612806E1,1.028900146E-1,8.877410889E-1,1.018624878E1
9.401612806E1,1.579269409E0,1.000198364E0,8.066207886E0
9.406612806E1,2.395629883E-3,1.445266724E0,6.900894165E0
9.411612806E1,-5.240325928E-1,1.744369507E0,6.865005493E0
9.416612806E1,4.791259766E-3,2.435897827E0,8.626129150E0
9.421612806E1,5.503540039E-1,2.636886597E0,9.891921997E0
9.426612806E1,-2.632141113E-2,2.041076660E0,1.235653687E1
9.431612806E1,3.086700439E-1,1.737182617E0,1.280160522E1
9.436612806E1,-8.135528564E-1,1.691726685E0,1.002352905E1
9.441612806E1,9.595184326E-1,6.221008301E-2,1.464886475E1
9.446612806E1,-2.679901123E-1,2.703857422E-1,9.564117432E0
9.451612806E1,-5.814514160E-1,3.804626465E-1,7.262222290E0
9.456612806E1,-4.929199219E-1,1.299301147E0,6.762115479E0
9.461612806E1,-6.676025391E-1,1.440475464E0,7.630706787E0
9.466612806E1,-1.674957275E-1,2.062606812E0,8.463409424E0
9.471612806E1,5.288085938E-1,2.287536621E0,1.024366760E1
9.476612806E1,2.081756592E-1,1.691726685E0,1.196171570E1
9.481612806E1,-4.355010986E-1,2.096115112E0,1.207418823E1
9.486612806E1,2.129608154E0,1.344772339E0,1.262931824E1
9.491612806E1,-1.076812744E-1,-4.929199219E-1,1.379940796E1
9.496612806E1,9.930267334E-1,7.824554443E-1,8.001602173E0
9.501612806E1,1.251449585E0,1.009765625E0,8.640487671E0
9.506612806E1,-3.565368652E-1,1.356735229E0,6.494125366E0
9.511612806E1,-6.436767578E-1,2.007583618E0,7.089935303E0
9.516612806E1,2.775726318E-1,2.694320679E0,9.020935059E0
9.521612806E1,1.579284668E-1,2.744567871E0,9.887145996E0
9.526612806E1,7.274169922E-1,2.091323853E0,1.308395386E1
9.531612806E1,1.069595337E0,2.383255005E0,1.176312256E1
9.536612806E1,1.100692749E0,1.028900146E-1,1.633580017E1
9.541612806E1,-8.063812256E-1,3.684997559E-1,8.987442017E0
9.546612806E1,-1.579284668E-1,6.269226074E-1,9.169296265E0
9.551612806E1,1.124572754E-1,1.186843872E0,6.649658203E0
9.556612806E1,-2.584228516E-1,1.622329712E0,6.159118652E0
9.561612806E1,-3.230285645E-1,1.708480835E0,7.367507935E0
9.566612806E1,1.244201660E-1,2.036285400E0,9.437286377E0
9.571612806E1,-8.135986328E-2,1.777862549E0,1.174397278E1
9.576612806E1,5.455627441E-1,1.550552368E0,1.234217834E1
9.581612806E1,2.871704102E-2,2.646469116E0,1.046859741E1
9.586612806E1,-3.086700439E-1,1.105484009E0,1.500538635E1
9.591612806E1,2.871398926E-1,4.331054688E-1,1.077966309E1
9.596612806E1,1.873580933E0,1.581649780E0,7.822143555E0
9.601612806E1,3.972015381E-1,1.713256836E0,6.958328247E0
9.606612806E1,-2.895355225E-1,1.801788330E0,5.754745483E0
9.611612806E1,2.799530029E-1,2.079360962E0,7.468002319E0
9.616612806E1,5.001068115E-1,2.612960815E0,9.410964966E0
9.621612806E1,6.915283203E-1,2.656036377E0,1.198326111E1
9.626612806E1,9.260253906E-1,2.612960815E0,1.350030518E1
9.631612806E1,9.834442139E-1,3.105880737E0,1.067916870E1
9.636612806E1,1.651000977E-1,7.154541016E-1,1.469192505E1
9.641612806E1,1.555328369E-1,7.513427734E-1,1.015992737E1
9.646612806E1,9.332275391E-2,8.590240479E-1,8.647659302E0
9.651612806E1,1.148529053E-1,1.588836670E0,5.474777222E0
9.656612806E1,-7.585296631E-1,1.478759766E0,6.577865601E0
9.661612806E1,2.751770020E-1,2.416748047E0,6.905685425E0
9.666612806E1,-2.560272217E-1,2.230117798E0,1.033938599E1
9.671612806E1,1.217941284E0,2.191818237E0,1.192582703E1
9.676612806E1,1.483612061E-1,2.359329224E0,1.304087830E1
9.681612806E1,1.639083862E0,7.274169922E-1,1.444308472E1
9.686612806E1,-5.718841553E-1,-1.555328369E-1,1.330409241E1
9.691612806E1,1.366302490E0,8.661956787E-1,7.161712646E0
9.696612806E1,1.445266724E0,1.725219727E0,7.582855225E0
9.701612806E1,1.914215088E-1,1.519439697E0,6.089736938E0
9.706612806E1,-2.703857422E-1,1.782653809E0,8.535202026E0
9.711612806E1,7.752685547E-1,2.330612183E0,9.556930542E0
9.716612806E1,4.355010986E-1,2.304290771E0,1.115055847E1
9.721612806E1,1.428512573E0,1.818542480E0,1.384725952E1
9.726612806E1,-2.823486328E-1,2.349746704E0,1.101176453E1
9.731612806E1,6.699829102E-1,3.445739746E-1,1.549592590E1
9.736612806E1,8.398742676E-1,5.001068115E-1,1.028195190E1
9.741612806E1,5.718841553E-1,2.919311523E-1,8.468200684E0
9.746612806E1,3.828582764E-1,9.427795410E-1,6.058624268E0
9.751612806E1,-2.943115234E-1,1.483551025E0,5.879165649E0
9.756612806E1,2.632141113E-1,1.998001099E0,6.771682739E0
9.761612806E1,3.182525635E-1,2.036285400E0,9.123840332E0
9.766612806E1,7.968139648E-1,1.655838013E0,1.199522400E1
9.771612806E1,1.019348145E0,1.270584106E0,1.343569946E1
9.776612806E1,1.330413818E0,1.287338257E0,1.089691162E1
9.781612806E1,2.871704102E-2,3.852386475E-1,1.597926331E1
9.786612806E1,7.896270752E-1,4.546356201E-1,9.923034668E0
9.791612806E1,2.050643921E0,1.160522461E0,7.786239624E0
9.796612806E1,8.135986328E-2,1.629516602E0,6.575469971E0
9.801612806E1,-7.537384033E-1,1.835296631E0,6.046661377E0
9.806612806E1,9.571838379E-2,2.254043579E0,8.200210571E0
9.811612806E1,2.895355225E-1,2.364105225E0,9.681365967E0
9.816612806E1,5.647125244E-1,1.727615356E0,1.276332092E1
9.821612806E1,7.465667725E-1,2.021942139E0,1.257907104E1
9.826612806E1,1.741973877E0,1.270584106E0,1.212683105E1
9.831612806E1,6.006011963E-1,7.177734375E-2,1.314138794E1
9.836612806E1,-2.823486328E-1,1.062408447E0,8.207382202E0
9.841612806E1,1.268157959E-1,7.441711426E-1,8.867797852E0
9.846612806E1,-1.651000977E-1,1.361511230E0,6.862609863E0
9.851612806E1,-4.977111816E-1,1.627120972E0,6.786041260E0
9.856612806E1,-3.613128662E-1,1.830505371E0,7.970489502E0
9.861612806E1,-1.172485352E-1,1.902297974E0,1.041117859E1
9.866612806E1,3.637084961E-1,1.328018188E0,1.213879395E1
9.871612806E1,-2.560272217E-1,1.670196533E0,1.278485107E1
9.876612806E1,1.533798218E0,1.411758423E0,1.091606140E1
9.881612806E1,-9.164581299E-1,-3.541412354E-1,1.435932922E1
9.886612806E1,1.277770996E0,6.508483887E-1,8.030319214E0
9.891612806E1,9.834442139E-1,1.215560913E0,9.564117432E0
9.896612806E1,-6.364898682E-1,1.392623901E0,5.826522827E0
9.901612806E1,-7.561340332E-1,2.522033691E0,6.678375244E0
9.906612806E1,3.445739746E-1,2.452636719E0,9.233901978E0
9.911612806E1,9.332275391E-2,2.703887939E0,1.058584595E1
9.916612806E1,3.756713867E-1,1.897506714E0,1.350987244E1
9.921612806E1,-1.531372070E-1,2.486145020E0,1.206222534E1
9.926612806E1,6.101684570E-1,1.174880981E0,1.236849976E1
9.931612806E1,-3.613128662E-1,2.895355225E-1,1.142573547E1
9.936612806E1,-1.651000977E-1,6.412811279E-1,8.544769287E0
9.941612806E1,-4.067840576E-1,7.752685547E-1,8.181060791E0
9.946612806E1,-3.397827148E-1,1.177261353E0,6.833908081E0
9.951612806E1,-6.604156494E-1,1.866409302E0,6.872192383E0
9.956612806E1,-1.890258789E-1,2.019546509E0,8.695510864E0
9.961612806E1,-3.349914551E-1,1.631912231E0,1.110269165E1
9.966612806E1,4.211425781E-1,1.840087891E0,1.279920959E1
9.971612806E1,-1.076812744E-1,2.373687744E0,1.098544312E1
9.976612806E1,2.153472900E-1,7.896270752E-1,1.627836609E1
9.981612806E1,1.579284668E-1,5.192413330E-1,1.052842712E1
9.986612806E1,2.048263550E0,1.450057983E0,6.546768188E0
9.991612806E1,6.293182373E-1,1.502685547E0,8.185852051E0
9.996612806E1,-1.220397949E-1,1.744369507E0,6.183059692E0
1.000161281E2,4.115600586E-1,2.172683716E0,8.078170776E0
1.000661281E2,8.470611572E-1,2.490921021E0,9.399002075E0
1.001161281E2,-6.939697266E-2,2.091323853E0,1.132762146E1
1.001661281E2,7.872314453E-1,2.196609497E0,1.296670532E1
1.002161281E2,3.062744141E-1,1.555328369E0,1.080358887E1
1.002661281E2,3.900299072E-1,3.421783447E-1,1.520159912E1
1.003161281E2,-3.373870850E-1,1.416549683E0,7.085144043E0
1.003661281E2,1.244201660E-1,8.494567871E-1,9.856033325E0
1.004161281E2,-1.435852051E-2,1.363906860E0,8.073379517E0
1.004661281E2,-7.178497314E-1,1.509872437E0,7.300506592E0
1.005161281E2,-9.809875488E-2,1.919036865E0,9.178863525E0
1.005661281E2,-1.651000977E-1,1.859222412E0,1.006660461E1
1.006161281E2,5.766754150E-1,1.153335571E0,1.216511536E1
1.006661281E2,5.527496338E-1,1.792221069E0,1.282313538E1
1.007161281E2,1.007385254E0,1.531402588E0,1.035374451E1
1.007661281E2,-6.388854980E-1,7.417297363E-2,1.284945679E1
1.008161281E2,1.150955200E0,9.619140625E-1,7.338790894E0
1.008661281E2,1.124572754E-1,9.858398438E-1,9.980468750E0
1.009161281E2,2.416687012E-1,1.639083862E0,6.872192383E0
1.009661281E2,1.531372070E-1,2.177474976E0,7.865203857E0
1.010161281E2,5.168457031E-1,2.139190674E0,9.544967651E0
1.010661281E2,6.963043213E-1,2.220535278E0,1.042552185E1
1.011161281E2,9.355926514E-1,1.926223755E0,1.284466553E1
1.011661281E2,-1.387786865E-1,2.488540649E0,1.115055847E1
1.012161281E2,4.259185791E-1,1.158126831E0,1.377787781E1
1.012661281E2,-6.149597168E-1,1.196411133E0,8.630905151E0
1.013161281E2,1.770629883E-1,8.207397461E-1,1.009053040E1
1.013661281E2,1.818542480E-1,9.451599121E-1,8.599807739E0
1.014161281E2,-2.775726318E-1,1.325622559E0,7.255035400E0
1.014661281E2,-1.220397949E-1,1.765899658E0,7.853240967E0
1.015161281E2,1.531372070E-1,2.045867920E0,9.530609131E0
1.015661281E2,-2.392883301E-1,1.763504028E0,1.053080750E1
1.016161281E2,6.316986084E-1,1.622329712E0,1.270111084E1
1.016661281E2,3.062744141E-1,2.376068115E0,1.127497864E1
1.017161281E2,4.809570312E-1,1.124633789E0,1.327537537E1
1.017661281E2,-3.278198242E-1,3.325958252E-1,1.070309448E1
1.018161281E2,1.643875122E0,8.997039795E-1,8.102096558E0
1.018661281E2,6.197357178E-1,1.323226929E0,8.465805054E0
1.019161281E2,-3.302154541E-1,1.445266724E0,6.419937134E0
1.019661281E2,1.627044678E-1,1.978866577E0,7.934600830E0
1.020161281E2,8.255310059E-1,2.476577759E0,8.910873413E0
1.020661281E2,1.842498779E-1,2.390426636E0,1.013839722E1
1.021161281E2,7.872314453E-1,2.096115112E0,1.260299683E1
1.021661281E2,-4.307098389E-1,2.612960815E0,1.160519409E1
1.022161281E2,8.925170898E-1,5.072784424E-1,1.626640320E1
1.022661281E2,2.392883301E-1,6.340942383E-1,8.807983398E0
1.023161281E2,0.000000000E0,7.106628418E-1,9.107086182E0
1.023661281E2,-3.111267090E-2,1.079162598E0,7.613967896E0
1.024161281E2,-4.953155518E-1,1.335189819E0,6.503692627E0
1.024661281E2,2.440643311E-1,1.993225098E0,7.884353638E0
1.025161281E2,-2.395629883E-3,2.036285400E0,9.918243408E0
1.025661281E2,2.321014404E-1,2.029113770E0,1.077966309E1
1.026161281E2,6.029968262E-1,1.490722656E0,1.242831421E1
1.026661281E2,1.196289062E-2,1.854431152E0,1.114337158E1
1.027161281E2,2.392578125E-2,3.948211670E-1,1.450289917E1
1.027661281E2,-2.799530029E-1,2.608184814E-1,1.065045166E1
1.028161281E2,1.835296631E0,1.052841187E0,7.331604004E0
1.028661281E2,8.709869385E-1,1.509872437E0,8.214553833E0
1.029161281E2,-3.110656738E-1,1.557723999E0,6.649658203E0
1.029661281E2,1.675415039E-2,1.962112427E0,7.735992432E0
1.030161281E2,4.163513184E-1,2.390426636E0,9.284149170E0
1.030661281E2,3.110656738E-1,2.612960815E0,1.105723572E1
1.031161281E2,9.858398438E-1,2.122436523E0,1.357926941E1
1.031661281E2,-7.656860352E-2,2.811569214E0,1.134915161E1
1.032161281E2,1.028915405E0,1.205978394E0,1.476850891E1
1.032661281E2,-4.235229492E-1,6.963043213E-1,8.767303467E0
1.033161281E2,-7.561340332E-1,8.135528564E-1,9.164505005E0
1.033661281E2,-1.124572754E-1,1.249053955E0,7.673782349E0
1.034161281E2,-4.115600586E-1,1.868789673E0,6.419937134E0
1.034661281E2,-4.378814697E-1,1.993225098E0,7.532608032E0
1.035161281E2,-3.469543457E-1,2.024322510E0,9.925430298E0
1.035661281E2,-1.914978027E-2,1.830505371E0,1.170808411E1
1.036161281E2,7.465667725E-1,9.738769531E-1,1.341894531E1
1.036661281E2,6.508483887E-1,2.088928223E0,1.130609131E1
