"Time (s)","Gyroscope x (rad/s)","Gyroscope y (rad/s)","Gyroscope z (rad/s)"
6.612806000E-2,-1.219787598E-1,-1.477508545E-1,3.654479980E-2
1.161280600E-1,-3.541107178E-1,-5.612182617E-2,-5.384826660E-2
1.661280600E-1,-1.903991699E-1,-2.864227295E-1,1.251220703E-1
2.161280600E-1,-1.079254150E-1,8.131408691E-2,6.831359863E-2
2.661280600E-1,-2.520904541E-1,-2.021179199E-1,1.690979004E-1
3.161280600E-1,-8.898925781E-2,-1.349182129E-1,2.250671387E-2
3.661280600E-1,2.683563232E-1,2.444152832E-1,7.563781738E-2
4.161280600E-1,3.012084961E-2,-4.977722168E-1,1.220703125E-1
4.661280600E-1,-5.722045898E-2,-2.191162109E-2,7.380676270E-2
5.161280600E-1,-3.340148926E-2,8.772735596E-1,4.525451660E-1
5.661280600E-1,1.248168945E-1,-1.685180664E-1,3.908538818E-1
6.161280600E-1,-2.117767334E-1,-6.187286377E-1,-1.748046875E-1
6.661280600E-1,-1.677856445E-1,4.118041992E-1,1.251220703E-1
7.161280600E-1,2.646942139E-1,3.091735840E-1,2.784423828E-1
7.661280600E-1,2.036132812E-1,4.405212402E-2,1.019134521E-1
8.161280600E-1,1.028137207E-1,1.168823242E-2,1.788787842E-1
8.661280600E-1,1.981048584E-1,-2.473297119E-1,2.381286621E-1
9.161280600E-1,5.088806152E-2,-4.580688477E-1,7.136535645E-2
9.661280600E-1,7.409667969E-2,-6.511077881E-1,-2.242889404E-1
1.016128060E0,3.520507812E-1,2.053222656E-1,-9.233093262E-2
1.066128060E0,-2.331542969E-1,-7.867279053E-1,-4.741363525E-1
1.116128060E0,-3.742675781E-1,4.930419922E-1,-2.316131592E-1
1.166128060E0,-7.798767090E-2,2.193756104E-1,1.605529785E-1
1.216128060E0,2.579650879E-1,1.246948242E-1,-1.314239502E-1
1.266128060E0,-9.814453125E-2,-1.929473877E-1,-1.729736328E-1
1.316128060E0,-2.075042725E-1,5.749511719E-2,-1.570892334E-1
1.366128060E0,-1.922302246E-1,-1.300354004E-1,-6.179809570E-2
1.416128060E0,2.042236328E-1,5.467987061E-1,1.638793945E-2
1.466128060E0,2.029418945E-3,1.924896240E-1,2.955474854E-1
1.516128060E0,4.711608887E-1,3.244476318E-1,2.149200439E-1
1.566128060E0,-1.916198730E-1,1.001281738E0,2.259216309E-1
1.616128060E0,5.577087402E-2,-7.164611816E-1,1.214599609E-1
1.666128060E0,-7.798767090E-2,-2.998657227E-1,-6.912231445E-2
1.716128060E0,-4.206848145E-1,3.843078613E-1,1.579284668E-2
1.766128060E0,2.951049805E-2,3.091735840E-1,1.758270264E-1
1.816128060E0,3.141784668E-1,-6.718750000E-1,2.494812012E-2
1.866128060E0,4.119110107E-1,-2.130126953E-2,3.236541748E-1
1.916128060E0,3.037872314E-1,-1.153564453E-2,1.458892822E-1
1.966128060E0,3.434906006E-1,-5.637512207E-1,-1.595306396E-1
2.016128060E0,3.807525635E-1,-2.130126953E-2,-1.625823975E-1
2.066128060E0,-7.676696777E-2,2.731323242E-1,-1.021118164E-1
2.116128060E0,-9.570312500E-2,-3.951416016E-1,-7.337493896E-1
2.166128060E0,-1.769561768E-1,3.262786865E-1,4.264831543E-2
2.216128060E0,-1.696319580E-1,1.821136475E-1,-2.270507812E-2
2.266128060E0,9.182739258E-2,2.792358398E-1,5.303955078E-2
2.316128060E0,1.437377930E-1,-3.352355957E-2,3.961181641E-2
2.366128060E0,2.610321045E-1,7.629394531E-5,4.327392578E-2
2.416128060E0,2.781372070E-1,4.136199951E-1,2.411956787E-1
2.466128060E0,2.378234863E-1,-1.642456055E-1,1.104583740E-1
2.516128060E0,4.546813965E-1,7.703704834E-1,2.497406006E-1
2.566128060E0,-4.524536133E-1,-2.980194092E-1,1.272583008E-2
2.616128060E0,7.897949219E-2,-1.648559570E-1,-4.530334473E-2
2.666128060E0,-4.714050293E-1,1.943359375E-1,5.303955078E-2
2.716128060E0,-5.483703613E-1,1.741638184E-1,-4.040527344E-2
2.766128060E0,8.937072754E-2,-3.053588867E-1,1.452789307E-1
2.816128060E0,2.628631592E-1,-2.534332275E-1,9.825134277E-2
2.866128060E0,3.141784668E-1,-3.035278320E-1,-2.346649170E-1
2.916128060E0,2.475891113E-1,-1.465301514E-1,-1.870269775E-1
2.966128060E0,-1.421356201E-1,-2.259368896E-1,-4.784088135E-1
3.016128060E0,-4.699707031E-3,3.250579834E-1,1.129150391E-3
3.066128060E0,-3.577728271E-1,-3.945465088E-1,-5.822601318E-1
3.116128060E0,-3.186798096E-1,6.182708740E-1,-3.159179688E-1
3.166128060E0,-2.942352295E-1,-3.041229248E-1,-1.027221680E-1
3.216128060E0,-9.143066406E-2,-3.413391113E-2,-9.111022949E-2
3.266128060E0,-2.166595459E-1,4.227905273E-1,1.538391113E-1
3.316128060E0,3.166198730E-1,-4.525756836E-1,1.825408936E-1
3.366128060E0,1.070861816E-1,9.841918945E-2,1.587219238E-1
3.416128060E0,1.816101074E-1,2.816772461E-2,8.419799805E-2
3.466128060E0,2.329254150E-1,2.181549072E-1,7.931518555E-2
3.516128060E0,-2.655334473E-1,6.194915771E-1,1.947631836E-1
3.566128060E0,-2.729797363E-2,-5.552062988E-1,-3.898315430E-1
3.616128060E0,-4.011383057E-1,4.197387695E-1,2.198028564E-1
3.666128060E0,-4.365692139E-1,2.071533203E-1,8.419799805E-2
3.716128060E0,-2.423095703E-2,-5.173339844E-1,2.497406006E-1
3.766128060E0,2.689666748E-1,-1.801300049E-1,3.053283691E-1
3.816128060E0,2.701873779E-1,-1.440887451E-1,9.579467773E-2
3.866128060E0,2.543029785E-1,-3.200073242E-1,-3.125000000E-2
3.916128060E0,-7.615661621E-2,-3.878173828E-1,-2.823181152E-1
3.966128060E0,6.311035156E-2,1.179656982E-1,-5.628967285E-2
4.016128060E0,-8.611297607E-1,-1.233215332E-1,-6.097412109E-1
4.066128060E0,1.327514648E-1,4.166870117E-1,7.197570801E-2
4.116128060E0,-1.445770264E-1,3.421630859E-1,8.236694336E-2
4.166128060E0,-1.280822754E-1,-6.004028320E-1,-1.601409912E-1
4.216128060E0,1.125946045E-1,1.369171143E-1,7.624816895E-2
4.266128060E0,-5.905151367E-2,9.719848633E-2,-4.347229004E-2
4.316128060E0,3.465576172E-1,-3.676605225E-1,1.782684326E-1
4.366128060E0,1.895599365E-1,1.332397461E-1,8.114624023E-2
4.416128060E0,2.653045654E-1,-2.283782959E-1,7.232666016E-3
4.466128060E0,2.946319580E-1,1.329925537E0,3.908538818E-1
4.516128060E0,-4.304656982E-1,-4.818878174E-1,-2.536163330E-1
4.566128060E0,3.887023926E-1,-2.943572998E-1,1.642150879E-1
4.616128060E0,-4.194641113E-1,5.064849854E-1,1.428375244E-1
4.666128060E0,-1.769561768E-1,-2.228851318E-1,2.863922119E-1
4.716128060E0,5.210876465E-2,-4.519653320E-1,7.843017578E-3
4.766128060E0,2.659149170E-1,-2.008056641E-2,4.937744141E-2
4.816128060E0,2.940216064E-1,-8.604431152E-2,-1.265411377E-1
4.866128060E0,2.451477051E-1,-1.422424316E-1,-1.283874512E-1
4.916128060E0,-1.714477539E-1,-5.918579102E-1,-3.690643311E-1
4.966128060E0,-7.127380371E-2,6.848602295E-1,-9.783935547E-2
5.016128060E0,-6.711578369E-1,-3.218536377E-1,-5.999603271E-1
5.066128060E0,-7.188415527E-2,5.516815186E-1,2.372741699E-2
5.116128060E0,-6.345062256E-1,2.132720947E-1,-2.603149414E-1
5.166128060E0,2.036132812E-1,7.154846191E-2,7.992553711E-2
5.216128060E0,-7.127380371E-2,1.185760498E-1,-1.841735840E-2
5.266128060E0,3.538818359E-1,-5.655822754E-1,1.220703125E-1
5.316128060E0,1.168670654E-1,-1.885986328E-2,-6.195068359E-3
5.366128060E0,1.681823730E-1,1.448364258E-1,-7.400512695E-2
5.416128060E0,2.598114014E-1,2.089843750E-1,4.142761230E-2
5.466128060E0,-1.080322266E-2,7.520446777E-1,1.275634766E-1
5.516128060E0,3.813781738E-1,-2.870178223E-1,-8.805847168E-2
5.566128060E0,-2.050628662E-1,-1.037750244E-1,1.959838867E-1
5.616128060E0,-1.653442383E-1,1.766052246E-1,2.943267822E-1
5.666128060E0,-3.021850586E-1,-2.801513672E-2,2.136993408E-1
5.716128060E0,1.101531982E-1,-3.945465088E-1,6.648254395E-2
5.766128060E0,-2.363586426E-2,4.710388184E-2,4.571533203E-2
5.816128060E0,4.661560059E-2,-5.839080811E-1,-1.613616943E-1
5.866128060E0,-1.225891113E-1,-3.395690918E-1,-2.872009277E-1
5.916128060E0,-4.054260254E-1,-3.725585938E-1,-3.721160889E-1
5.966128060E0,-2.661437988E-1,5.046539307E-1,5.242919922E-2
6.016128060E0,-7.352905273E-1,-3.890380859E-1,-7.038269043E-1
6.066128060E0,-3.096008301E-2,6.054687500E-2,1.599426270E-1
6.116128060E0,-5.367584229E-1,1.411743164E-1,-1.680908203E-1
6.166128060E0,1.785583496E-1,2.841339111E-1,-9.155273438E-5
6.216128060E0,-5.355834961E-2,1.931152344E-1,7.870483398E-2
6.266128060E0,5.169830322E-1,-5.894165039E-1,1.318511963E-1
6.316128060E0,4.051971436E-1,-9.399414062E-2,1.263427734E-1
6.366128060E0,4.424591064E-1,1.020812988E-1,1.943969727E-2
6.416128060E0,4.711608887E-1,2.175445557E-1,1.685028076E-1
6.466128060E0,1.057434082E-2,-1.172027588E-1,-1.658630371E-2
6.516128060E0,3.086853027E-1,1.312255859E-3,-7.217407227E-2
6.566128060E0,-1.965026855E-1,4.234008789E-1,5.853271484E-2
6.616128060E0,-4.848327637E-1,1.613464355E-1,3.654479980E-2
6.666128060E0,-3.376159668E-1,-3.474426270E-2,2.283630371E-1
6.716128060E0,1.118469238E-2,-1.147613525E-1,3.542022705E-1
6.766128060E0,2.689666748E-1,-2.943572998E-1,2.161407471E-1
6.816128060E0,2.366027832E-1,-2.448730469E-1,-7.522583008E-2
6.866128060E0,2.042236328E-1,6.359863281E-2,-1.845855713E-1
6.916128060E0,1.272583008E-1,4.649353027E-2,-1.644134521E-1
6.966128060E0,-6.320648193E-1,-1.923370361E-1,-3.146972656E-1
7.016128060E0,-1.439666748E-1,3.030548096E-1,-1.522064209E-1
7.066128060E0,-3.406677246E-1,6.341552734E-1,3.456420898E-1
7.116128060E0,-4.701843262E-1,-3.413391113E-2,-3.085937500E-1
7.166128060E0,2.304840088E-1,1.045227051E-1,-6.240844727E-2
7.216128060E0,1.174774170E-1,2.639617920E-1,-1.314239502E-1
7.266128060E0,3.477783203E-1,-1.153717041E-1,3.837585449E-2
7.316128060E0,1.468048096E-1,-2.313232422E-2,6.159973145E-2
7.366128060E0,2.005462646E-1,-2.479248047E-1,-3.753662109E-3
7.416128060E0,1.852874756E-1,6.121673584E-1,3.077697754E-1
7.466128060E0,-4.396362305E-1,-5.387115479E-1,-2.053527832E-1
7.516128060E0,3.960418701E-1,-2.522125244E-1,1.336669922E-1
7.566128060E0,-1.855163574E-1,1.191864014E-1,1.800994873E-1
7.616128060E0,-2.948608398E-1,2.492980957E-1,1.825408936E-1
7.666128060E0,-1.928405762E-1,-2.247161865E-1,5.792236328E-2
7.716128060E0,4.565124512E-1,-4.098052979E-1,1.373291016E-1
7.766128060E0,3.465576172E-1,-6.344604492E-2,-9.843444824E-2
7.816128060E0,3.722076416E-1,-3.255157471E-1,-2.774200439E-1
7.866128060E0,2.890014648E-2,-2.021179199E-1,-6.140289307E-1
7.916128060E0,-1.433563232E-1,2.761840820E-1,-4.032745361E-1
7.966128060E0,-1.082275391E0,-2.106628418E-1,-7.581787109E-1
8.016128060E0,1.545715332E-2,4.820404053E-1,1.837615967E-1
8.066128060E0,-6.235046387E-1,-1.110992432E-1,-1.564788818E-1
8.116128060E0,-1.219787598E-1,-3.181915283E-1,-2.291717529E-1
8.166128060E0,-8.105468750E-2,1.155242920E-1,2.676391602E-2
8.216128060E0,7.043457031E-2,-2.143402100E-1,8.480834961E-2
8.266128060E0,3.612060547E-1,-1.367645264E-1,1.904907227E-1
8.316128060E0,2.585906982E-1,9.597778320E-2,-1.658630371E-2
8.366128060E0,2.286529541E-1,-3.289794922E-2,1.159667969E-1
8.416128060E0,-5.294799805E-2,5.932312012E-1,1.807098389E-1
8.466128060E0,-2.912902832E-2,-4.531860352E-1,-6.729125977E-2
8.516128060E0,-2.093353271E-1,4.356231689E-1,2.815093994E-1
8.566128060E0,-4.445190430E-1,-6.527709961E-2,2.925109863E-1
8.616128060E0,-1.141357422E-2,-2.149505615E-1,4.488830566E-1
8.666128060E0,1.168670654E-1,-9.216308594E-2,3.560333252E-1
8.716128060E0,3.007354736E-1,-2.191162109E-2,1.428375244E-1
8.766128060E0,2.744750977E-1,-6.956481934E-2,5.303955078E-2
8.816128060E0,1.162567139E-1,-1.740112305E-1,-2.132873535E-1
8.866128060E0,-2.258300781E-3,-1.599731445E-1,-2.719421387E-1
8.916128060E0,-4.176330566E-1,3.672027588E-1,-2.603149414E-1
8.966128060E0,-2.411041260E-1,-2.827606201E-1,-3.880004883E-1
9.016128060E0,4.051208496E-2,6.811981201E-1,2.393493652E-1
9.066128060E0,-4.029846191E-1,-1.477508545E-1,-1.919097900E-1
9.116128060E0,2.579650879E-1,1.283569336E-1,-1.412048340E-1
9.166128060E0,-2.484283447E-1,3.171234131E-1,-6.607055664E-2
9.216128060E0,5.237121582E-1,-6.193389893E-1,3.303833008E-1
9.266128060E0,2.042236328E-1,5.749511719E-2,1.263427734E-1
9.316128060E0,2.958526611E-1,-8.468627930E-3,1.513977051E-1
9.366128060E0,3.221130371E-1,6.158294678E-1,2.546234131E-1
9.416128060E0,-3.424987793E-1,-2.283782959E-1,-1.088409424E-1
9.466128060E0,5.524139404E-1,-5.000305176E-2,1.807098389E-1
9.516128060E0,-2.991180420E-1,3.103942871E-1,1.318511963E-1
9.566128060E0,-2.795715332E-1,-1.282043457E-1,2.778472900E-1
9.616128060E0,-1.457977295E-1,-1.795196533E-1,9.274291992E-2
9.666128060E0,1.290740967E-1,-1.550903320E-1,1.917114258E-1
9.716128060E0,1.602325439E-1,-7.078552246E-2,8.602905273E-2
9.766128060E0,7.472229004E-2,-2.424316406E-1,-1.271667480E-1
9.816128060E0,-4.699707031E-3,-4.128723145E-1,-2.975921631E-1
9.866128060E0,-1.128082275E-1,4.008026123E-1,-2.242889404E-1
9.916128060E0,-8.629608154E-1,-2.008972168E-1,-6.213531494E-1
9.966128060E0,1.645050049E-1,2.205963135E-1,-9.295654297E-2
1.001612806E1,-3.785400391E-1,5.290832520E-1,5.059814453E-2
1.006612806E1,-8.361816406E-3,-1.153717041E-1,-1.876373291E-1
1.011612806E1,1.113739014E-1,1.436157227E-1,-1.308288574E-1
1.016612806E1,3.439331055E-2,-1.343078613E-1,1.153411865E-1
1.021612806E1,3.508300781E-1,-4.983825684E-1,1.281738281E-1
1.026612806E1,4.173278809E-2,-1.153564453E-2,8.847045898E-2
1.031612806E1,1.675720215E-1,-2.435302734E-2,6.011962891E-3
1.036612806E1,7.350158691E-2,1.008621216E0,2.356872559E-1
1.041612806E1,-1.427459717E-1,-8.594207764E-1,-2.853698730E-1
1.046612806E1,1.321411133E-1,4.893493652E-2,1.782684326E-1
1.051612806E1,-3.394470215E-1,2.352600098E-1,1.245117188E-1
1.056612806E1,-3.565521240E-1,-2.295989990E-1,1.263427734E-1
1.061612806E1,6.982421875E-2,-4.573059082E-2,3.633575439E-1
1.066612806E1,1.046447754E-1,9.353637695E-2,1.550598145E-1
1.071612806E1,1.736755371E-1,-4.159240723E-1,6.221008301E-2
1.076612806E1,3.250122070E-3,-2.570953369E-1,-1.729736328E-1
1.081612806E1,-3.046264648E-1,-1.172027588E-1,-2.499389648E-1
1.086612806E1,-5.483703613E-1,3.494873047E-1,2.128601074E-2
1.091612806E1,-7.016906738E-1,-8.482360840E-2,-3.562316895E-1
1.096612806E1,-3.828430176E-2,5.455780029E-1,3.163299561E-1
1.101612806E1,-3.932037354E-1,-4.146881104E-1,-3.336334229E-1
1.106612806E1,1.003723145E-1,4.154663086E-1,-2.358856201E-1
1.111612806E1,-6.822204590E-2,3.128356934E-1,-1.414489746E-2
1.116612806E1,4.381866455E-1,-3.194122314E-1,2.583007812E-1
1.121612806E1,2.787475586E-1,9.536743164E-2,1.483306885E-1
1.126612806E1,2.634735107E-1,-1.245422363E-1,1.526184082E-1
1.131612806E1,3.538818359E-1,3.714752197E-1,1.623840332E-1
1.136612806E1,-2.136077881E-1,1.998291016E-1,9.764099121E-2
1.141612806E1,6.183929443E-1,-6.767578125E-1,7.807922363E-2
1.146612806E1,-1.531219482E-1,3.177185059E-1,6.770324707E-2
1.151612806E1,-1.635131836E-1,-5.472564697E-1,1.813201904E-1
1.156612806E1,1.797790527E-1,2.938842773E-2,3.511505127E-1
1.161612806E1,1.370239258E-1,-7.688903809E-2,1.287841797E-1
1.166612806E1,3.227233887E-1,-2.344970703E-1,1.086273193E-1
1.171612806E1,1.645050049E-1,8.926391602E-2,-3.247070312E-2
1.176612806E1,2.701873779E-1,-1.758575439E-1,-1.314239502E-1
1.181612806E1,1.529083252E-1,2.138824463E-1,-9.233093262E-2
1.186612806E1,-2.795715332E-1,-1.029968262E-2,-4.313812256E-1
1.191612806E1,5.027770996E-2,4.771423340E-2,-3.287353516E-1
1.196612806E1,-4.280242920E-1,4.289093018E-1,4.180908203E-3
1.201612806E1,-2.520904541E-1,4.649353027E-2,-4.530334473E-2
1.206612806E1,4.112243652E-2,5.028228760E-1,-4.408264160E-2
1.211612806E1,-5.599975586E-2,1.167449951E-1,-3.552246094E-2
1.216612806E1,5.072021484E-1,-4.244689941E-1,1.330718994E-1
1.221612806E1,1.455841064E-1,3.916931152E-2,5.401611328E-3
1.226612806E1,3.770904541E-1,-8.055114746E-2,-6.195068359E-3
1.231612806E1,1.545715332E-2,1.036712646E0,2.494812012E-2
1.236612806E1,-2.936401367E-1,-5.087738037E-1,-2.419891357E-1
1.241612806E1,-1.042633057E-1,3.000183105E-1,-1.536560059E-2
1.246612806E1,-6.821441650E-1,-6.120147705E-1,8.724975586E-2
1.251612806E1,1.675720215E-1,5.566406250E-2,2.283630371E-1
1.256612806E1,-1.421356201E-1,6.781311035E-1,2.066040039E-2
1.261612806E1,5.298156738E-1,-3.242950439E-1,8.114624023E-2
1.266612806E1,1.968841553E-1,-2.479248047E-1,-1.772460938E-1
1.271612806E1,1.186981201E-1,-3.578948975E-1,-2.163391113E-1
1.276612806E1,-1.268615723E-1,-1.453094482E-1,-2.053527832E-1
1.281612806E1,-2.435455322E-1,7.086791992E-1,2.310180664E-2
1.286612806E1,-5.446929932E-1,-3.242950439E-1,-5.089569092E-1
1.291612806E1,-1.325988770E-2,3.000183105E-1,1.416168213E-1
1.296612806E1,-3.968658447E-1,-1.397705078E-2,-9.539794922E-2
1.301612806E1,2.103271484E-1,8.436584473E-2,-1.475524902E-2
1.306612806E1,2.624511719E-3,5.383300781E-2,-9.173583984E-2
1.311612806E1,4.259643555E-1,-4.421997070E-1,-7.339477539E-2
1.316612806E1,2.457580566E-1,-2.008972168E-1,-6.607055664E-2
1.321612806E1,2.164306641E-1,1.907348633E-3,-1.454925537E-1
1.326612806E1,3.978576660E-1,3.195648193E-1,9.152221680E-2
1.331612806E1,-5.844116211E-2,7.215118408E-1,1.410064697E-1
1.336612806E1,4.882659912E-1,-6.303405762E-1,1.807098389E-1
1.341612806E1,2.340698242E-2,8.741760254E-2,3.566436768E-1
1.346612806E1,-4.438934326E-1,1.894378662E-1,4.574279785E-1
1.351612806E1,-3.340148926E-2,1.173553467E-1,3.676452637E-1
1.356612806E1,-1.763458252E-1,3.073425293E-1,3.157196045E-1
1.361612806E1,2.653045654E-1,-4.348602295E-1,3.150939941E-1
1.366612806E1,4.051208496E-2,-3.273468018E-1,1.213073730E-2
1.371612806E1,1.119689941E-1,-4.049224854E-1,-2.572784424E-1
1.376612806E1,-1.800079346E-1,1.179656982E-1,-2.474975586E-1
1.381612806E1,-8.360900879E-1,-1.146530151E0,-5.779724121E-1
1.386612806E1,8.448791504E-2,-2.045593262E-1,-1.607513428E-1
1.391612806E1,-2.288818359E-1,9.493560791E-1,1.690979004E-1
1.396612806E1,-5.111694336E-2,4.075164795E-1,-8.927917480E-2
1.401612806E1,-9.020996094E-2,3.409423828E-1,-2.707214355E-1
1.406612806E1,2.828979492E-2,-1.763916016E-2,-8.500671387E-2
1.411612806E1,2.408599854E-1,-2.204437256E-1,4.205322266E-2
1.416612806E1,1.101531982E-1,1.643981934E-1,1.819458008E-1
1.421612806E1,7.043457031E-2,-2.332763672E-1,3.349304199E-2
1.426612806E1,4.143676758E-1,3.891906738E-1,3.651885986E-1
1.431612806E1,-3.131866455E-1,-1.495819092E-1,-2.487182617E-1
1.436612806E1,2.500305176E-1,2.450561523E-2,2.356872559E-1
1.441612806E1,-3.241729736E-1,1.332397461E-1,2.760009766E-1
1.446612806E1,-2.209320068E-1,-1.697387695E-1,1.477355957E-1
1.451612806E1,-1.203918457E-2,3.128356934E-1,2.210235596E-1
1.456612806E1,1.797790527E-1,-4.695129395E-2,2.320251465E-1
1.461612806E1,3.642730713E-1,-4.061431885E-1,-8.041381836E-3
1.466612806E1,5.088806152E-2,-8.970642090E-2,-3.000335693E-1
1.471612806E1,-1.824493408E-1,-2.253265381E-1,-3.214111328E-1
1.476612806E1,-2.710266113E-1,5.284729004E-1,-6.179809570E-2
1.481612806E1,-8.635711670E-1,-1.776885986E-1,-6.476135254E-1
1.486612806E1,2.989044189E-1,-2.766418457E-1,1.335144043E-2
1.491612806E1,-4.823913574E-1,4.344177246E-2,-9.233093262E-2
1.496612806E1,-1.164703369E-1,-4.715118408E-1,-3.904418945E-1
1.501612806E1,-1.567993164E-1,5.370330811E-1,-2.529907227E-1
1.506612806E1,9.915161133E-2,-1.086578369E-1,-1.937866211E-3
1.511612806E1,4.412384033E-1,-5.900115967E-1,4.998779297E-2
1.516612806E1,1.761169434E-1,-5.856323242E-2,1.457214355E-2
1.521612806E1,3.514404297E-1,-2.295989990E-1,-1.198272705E-1
1.526612806E1,6.921386719E-2,1.042816162E0,7.931518555E-2
1.531612806E1,3.439331055E-2,-4.385223389E-1,-1.784667969E-1
1.536612806E1,-5.233764648E-2,-6.527709961E-2,2.955474854E-1
1.541612806E1,-2.838592529E-1,5.700225830E-1,3.755798340E-1
1.546612806E1,-3.082885742E-1,1.888275146E-1,5.246276855E-1
1.551612806E1,2.341461182E-1,-5.551147461E-2,4.006347656E-1
1.556612806E1,1.131896973E-1,-2.528228760E-1,2.588958740E-1
1.561612806E1,8.509826660E-2,-3.951416016E-1,1.593322754E-1
1.566612806E1,-2.258300781E-3,-4.702911377E-1,-1.841735840E-2
1.571612806E1,-1.653442383E-1,1.833343506E-1,-2.004547119E-1
1.576612806E1,-5.874633789E-1,1.625671387E-1,-3.745574951E-1
1.581612806E1,-1.629028320E-1,-4.878234863E-2,-6.531219482E-1
1.586612806E1,-4.268035889E-1,6.457672119E-1,6.465148926E-2
1.591612806E1,-3.284454346E-1,2.865753174E-1,-4.408264160E-2
1.596612806E1,1.968841553E-1,3.519287109E-1,9.642028809E-2
1.601612806E1,1.504669189E-1,5.627441406E-2,1.599426270E-1
1.606612806E1,6.049499512E-1,-6.828765869E-1,3.108367920E-1
1.611612806E1,2.463684082E-1,-3.200073242E-1,9.274291992E-2
1.616612806E1,4.607849121E-1,-7.444763184E-2,1.159667969E-1
1.621612806E1,2.194976807E-1,4.423522949E-1,1.471099854E-1
1.626612806E1,-1.360168457E-1,-7.610626221E-1,-1.387634277E-1
1.631612806E1,2.036132812E-1,1.479034424E-1,1.813201904E-1
1.636612806E1,-5.294342041E-1,1.747894287E-1,-9.872436523E-3
1.641612806E1,-1.415252686E-1,-2.595367432E-1,1.202392578E-1
1.646612806E1,5.271911621E-2,1.265106201E-1,1.800994873E-1
1.651612806E1,1.614532471E-1,-3.840637207E-2,1.538391113E-1
1.656612806E1,4.632263184E-1,-3.010864258E-1,1.061859131E-1
1.661612806E1,-9.814453125E-2,-1.624145508E-1,-1.772460938E-1
1.666612806E1,-5.111694336E-2,-3.591156006E-1,-3.458404541E-1
1.671612806E1,-4.335174561E-1,6.793518066E-1,-2.377319336E-1
1.676612806E1,-6.002960205E-1,5.627441406E-2,-8.534851074E-1
1.681612806E1,5.027770996E-2,2.529754639E-1,-1.949615479E-1
1.686612806E1,-3.547210693E-1,1.509552002E-1,-1.943511963E-1
1.691612806E1,1.675720215E-1,-1.947021484E-2,-1.424255371E-1
1.696612806E1,-4.089355469E-3,1.295776367E-1,1.452789307E-1
1.701612806E1,2.775268555E-1,-2.662506104E-1,9.764099121E-2
1.706612806E1,3.147888184E-1,-3.603363037E-1,2.130889893E-1
1.711612806E1,1.138153076E-1,1.088104248E-1,1.159667969E-1
1.716612806E1,3.612060547E-1,1.937103271E-1,2.308044434E-1
1.721612806E1,-3.980865479E-1,3.855895996E-2,-1.353454590E-2
1.726612806E1,3.141784668E-1,-1.104888916E-1,4.205322266E-2
1.731612806E1,-4.090881348E-1,4.649353027E-1,1.770477295E-1
1.736612806E1,-2.478179932E-1,-3.334503174E-1,1.568908691E-1
1.741612806E1,7.594299316E-2,-1.068115234E-1,4.000091553E-1
1.746612806E1,5.639648438E-2,2.163238525E-1,1.391754150E-1
1.751612806E1,3.557128906E-1,-2.515869141E-1,1.825408936E-1
1.756612806E1,1.877288818E-1,-1.110992432E-1,7.232666016E-3
1.761612806E1,2.706909180E-2,-5.551147461E-2,-2.493286133E-1
1.766612806E1,-2.771301270E-1,4.551696777E-1,-3.433990479E-1
1.771612806E1,-1.121963501E0,-4.861755371E-1,-6.072998047E-1
1.776612806E1,6.494140625E-2,-1.477508545E-1,-3.247070312E-2
1.781612806E1,-1.965026855E-1,3.873596191E-1,4.299468994E-1
1.786612806E1,-1.347961426E-1,-1.752319336E-1,2.460784912E-1
1.791612806E1,1.107482910E-1,-1.159820557E-1,1.147460938E-1
1.796612806E1,1.687927246E-1,-4.267883301E-2,1.232910156E-1
1.801612806E1,3.618316650E-1,-8.544921875E-2,1.055755615E-1
1.806612806E1,2.036132812E-1,2.670288086E-1,3.898620605E-2
1.811612806E1,2.885131836E-1,8.314514160E-2,1.884460449E-2
1.816612806E1,-1.574096680E-1,5.254211426E-1,-3.613281250E-2
1.821612806E1,-2.441558838E-1,-6.810455322E-1,-1.625823975E-1
1.826612806E1,-9.265136719E-2,9.170532227E-2,1.190185547E-1
1.831612806E1,-4.665069580E-1,-3.774414062E-1,1.391754150E-1
1.836612806E1,2.310943604E-1,-1.868438721E-1,2.277526855E-1
1.841612806E1,8.631896973E-2,4.008026123E-1,2.931060791E-1
1.846612806E1,4.778900146E-1,-2.387695312E-1,1.990356445E-1
1.851612806E1,2.274322510E-1,-5.124359131E-1,-1.674804688E-1
1.856612806E1,-4.255676270E-2,-1.275939941E-1,-2.639923096E-1
1.861612806E1,-1.543426514E-1,-3.798828125E-1,-4.167175293E-1
1.866612806E1,-3.363952637E-1,4.930419922E-1,-2.419891357E-1
1.871612806E1,-5.654602051E-1,-4.085845947E-1,-8.583679199E-1
1.876612806E1,3.439331055E-2,6.659240723E-1,1.843872070E-1
1.881612806E1,-4.109191895E-1,9.109497070E-2,1.385650635E-1
1.886612806E1,4.485778809E-1,-2.679443359E-2,1.648406982E-1
1.891612806E1,-1.995849609E-2,3.953094482E-1,7.075500488E-2
1.896612806E1,5.786895752E-1,-4.922790527E-1,8.847045898E-2
1.901612806E1,3.074645996E-1,-2.943572998E-1,-1.658630371E-2
1.906612806E1,3.239440918E-1,1.882171631E-1,-1.515960693E-1
1.911612806E1,3.050079346E-1,6.952362061E-1,-1.902770996E-2
1.916612806E1,-2.453765869E-1,3.452148438E-1,-2.077941895E-1
1.921612806E1,4.277954102E-1,-5.625305176E-1,-4.411468506E-1
1.926612806E1,-5.263671875E-1,5.309143066E-1,-1.106567383E-1
1.931612806E1,-3.895416260E-1,2.700653076E-1,2.497406006E-1
1.936612806E1,6.677246094E-2,2.511444092E-1,4.910430908E-1
1.941612806E1,3.294525146E-1,1.723480225E-1,5.166931152E-1
1.946612806E1,3.673248291E-1,-3.053588867E-1,2.625732422E-1
1.951612806E1,3.379974365E-1,-3.927001953E-1,-2.041320801E-1
1.956612806E1,4.722595215E-2,-1.037750244E-1,-4.735260010E-1
1.961612806E1,-1.329803467E-1,2.920684814E-1,-2.865905762E-1
1.966612806E1,-9.765930176E-1,-8.612365723E-1,-1.117980957E0
1.971612806E1,-1.141357422E-2,7.166137695E-1,-1.002807617E-1
1.976612806E1,-6.381683350E-1,9.279937744E-1,2.399749756E-1
1.981612806E1,1.193084717E-1,-1.526336670E-1,-1.015014648E-1
1.986612806E1,-1.433563232E-1,4.252471924E-1,-2.200012207E-1
1.991612806E1,4.632263184E-1,-2.290039062E-1,3.288269043E-2
1.996612806E1,2.543029785E-1,-1.947937012E-1,3.776550293E-2
2.001612806E1,2.005462646E-1,4.039001465E-2,2.128601074E-2
2.006612806E1,2.891387939E-1,4.667816162E-1,2.741851807E-1
2.011612806E1,3.805541992E-2,4.148559570E-1,3.645935059E-1
2.016612806E1,3.025665283E-1,-5.845184326E-1,2.983093262E-2
2.021612806E1,-1.482391357E-1,2.285308838E-1,3.334350586E-1
2.026612806E1,-4.866638184E-1,-2.283782959E-1,8.541870117E-2
2.031612806E1,-3.088989258E-1,6.420898438E-2,1.935424805E-1
2.036612806E1,-1.714477539E-1,3.995819092E-1,1.379547119E-1
2.041612806E1,1.498565674E-1,-4.165344238E-1,2.405700684E-1
2.046612806E1,2.512512207E-1,-9.272155762E-1,1.556701660E-1
2.051612806E1,-3.706359863E-2,-3.737792969E-1,-7.278442383E-2
2.056612806E1,1.639099121E-1,3.794250488E-1,2.250671387E-2
2.061612806E1,-1.470184326E-1,2.089843750E-1,-6.195068359E-3
2.066612806E1,9.671020508E-2,-3.517761230E-1,-5.743103027E-1
2.071612806E1,-1.164703369E-1,1.503448486E-1,4.205322266E-2
2.076612806E1,-2.019958496E-1,-1.159820557E-1,7.319641113E-2
2.081612806E1,7.043457031E-2,4.374542236E-1,2.173614502E-1
2.086612806E1,-1.207580566E-1,2.969512939E-1,1.862030029E-1
2.091612806E1,2.506408691E-1,-5.985717773E-1,2.399749756E-1
2.096612806E1,1.009826660E-1,-4.415740967E-1,4.372863770E-1
2.101612806E1,3.012084961E-2,2.786254883E-1,2.289733887E-1
2.106612806E1,4.149627686E-1,5.883483887E-1,1.110687256E-1
2.111612806E1,-4.768829346E-1,2.468566895E-1,-1.858062744E-1
2.116612806E1,4.381866455E-1,-8.307037354E-1,-1.906890869E-1
2.121612806E1,-3.034057617E-1,1.503448486E-1,4.205322266E-2
2.126612806E1,-3.638763428E-1,2.089843750E-1,-9.155273438E-5
2.131612806E1,1.125946045E-1,-5.307006836E-2,2.955474854E-1
2.136612806E1,1.608428955E-1,-1.519775391E-2,1.397857666E-1
2.141612806E1,2.769165039E-1,-2.644348145E-1,3.218231201E-1
2.146612806E1,1.473999023E-1,-3.859863281E-1,-3.491210938E-2
2.151612806E1,-9.265136719E-2,3.030548096E-1,-9.843444824E-2
2.156612806E1,-7.983398438E-2,5.425262451E-1,7.843017578E-3
2.161612806E1,-6.473236084E-1,-5.112152100E-1,-4.564208984E-1
2.166612806E1,-3.479003906E-3,7.032775879E-2,-8.010864258E-2
2.171612806E1,-2.075042725E-1,2.389221191E-1,2.616882324E-2
2.176612806E1,4.417419434E-2,8.583526611E-1,3.837585449E-2
2.181612806E1,-4.272460938E-4,3.720855713E-1,1.324462891E-1
2.186612806E1,2.097167969E-1,-8.361968994E-1,2.002563477E-1
2.191612806E1,3.783111572E-1,-6.199493408E-1,9.701538086E-2
2.196612806E1,7.043457031E-2,4.093627930E-1,-4.957580566E-2
2.201612806E1,3.581542969E-1,-2.100524902E-1,-6.729125977E-2
2.206612806E1,-2.485656738E-2,5.693969727E-1,1.147460938E-1
2.211612806E1,3.850402832E-1,-8.691864014E-1,7.870483398E-2
2.216612806E1,-6.517028809E-2,-1.642456055E-1,4.264831543E-2
2.221612806E1,-5.166015625E-1,2.492980957E-1,-7.644653320E-2
2.226612806E1,-2.435455322E-1,5.137634277E-2,7.014465332E-2
2.231612806E1,4.844665527E-2,6.115722656E-2,2.808990479E-1
2.236612806E1,4.539489746E-2,2.389526367E-2,1.886596680E-1
2.241612806E1,3.037872314E-1,-4.092102051E-1,-4.713439941E-2
2.246612806E1,1.403808594E-3,-4.073638916E-1,-3.110351562E-1
2.251612806E1,1.388549805E-1,-4.611206055E-1,-3.085937500E-1
2.256612806E1,-7.872161865E-1,-2.992401123E-1,-7.135925293E-1
2.261612806E1,-3.938140869E-1,5.529174805E-1,-2.988128662E-1
2.266612806E1,5.065917969E-3,3.714752197E-1,5.618896484E-1
2.271612806E1,-2.056884766E-2,1.399536133E-1,1.028442383E-2
2.276612806E1,-1.115875244E-1,2.340393066E-1,-4.044952393E-1
2.281612806E1,1.620635986E-1,6.790161133E-3,-1.234893799E-1
2.286612806E1,2.396392822E-1,-2.577056885E-1,-6.484985352E-2
2.291612806E1,2.701873779E-1,-2.130126953E-2,4.510498047E-2
2.296612806E1,3.074645996E-1,1.472930908E-1,1.458892822E-1
2.301612806E1,2.060546875E-1,4.563903809E-1,3.377075195E-1
2.306612806E1,-3.260040283E-1,-8.093261719E-1,-5.908050537E-1
2.311612806E1,5.027770996E-2,6.683654785E-1,9.825134277E-2
2.316612806E1,-4.127502441E-1,6.396484375E-1,1.733856201E-1
2.321612806E1,-3.333282471E-1,-6.266632080E-1,1.672821045E-1
2.326612806E1,-1.848907471E-1,-3.536071777E-1,1.776580811E-1
2.331612806E1,2.188720703E-1,-8.116149902E-2,2.454681396E-1
2.336612806E1,7.531738281E-2,-1.141510010E-1,-1.198272705E-1
2.341612806E1,2.310943604E-1,-4.878234863E-2,-1.473083496E-1
2.346612806E1,-1.891784668E-1,3.470458984E-1,-4.167175293E-1
2.351612806E1,-4.414520264E-1,-8.789062500E-2,-1.344909668E-1
2.356612806E1,-6.564941406E-1,-1.214324951E0,-3.458404541E-1
2.361612806E1,2.848510742E-1,7.606048584E-1,5.973205566E-1
2.366612806E1,-4.775085449E-1,5.052642822E-1,1.031341553E-1
2.371612806E1,2.989044189E-1,-2.967987061E-1,1.495513916E-1
2.376612806E1,2.951049805E-2,5.242004395E-1,1.911010742E-1
2.381612806E1,3.667144775E-1,-1.335144043E-2,3.144989014E-1
2.386612806E1,3.642730713E-1,-3.041229248E-1,4.684295654E-1
2.391612806E1,2.481994629E-1,1.295776367E-1,1.892700195E-1
2.396612806E1,3.538818359E-1,3.659820557E-1,3.206024170E-1
2.401612806E1,-3.510589600E-1,1.312255859E-3,-1.125030518E-1
2.406612806E1,1.547393799E-1,-5.442047119E-1,3.529815674E-1
2.411612806E1,-5.911254883E-1,-2.760314941E-1,8.358764648E-2
2.416612806E1,-6.137237549E-1,-5.179290771E-1,-2.401733398E-1
2.421612806E1,1.052551270E-1,3.006134033E-1,1.272583008E-2
2.426612806E1,1.822204590E-1,2.859497070E-1,-1.008911133E-1
2.431612806E1,5.359191895E-1,-2.601470947E-1,-1.109313965E-2
2.436612806E1,1.510772705E-1,-2.638092041E-1,-2.768249512E-1
2.441612806E1,3.195190430E-2,1.393585205E-1,-2.810974121E-1
2.446612806E1,-2.392578125E-1,4.246215820E-1,-3.433990479E-1
2.451612806E1,-9.099884033E-1,-2.228851318E-1,-6.628875732E-1
2.456612806E1,1.687927246E-1,-2.607574463E-1,-1.454925537E-1
2.461612806E1,-3.461761475E-1,4.502716064E-1,9.091186523E-2
2.466612806E1,-2.563629150E-1,-5.490112305E-2,-1.680908203E-1
2.471612806E1,2.304840088E-1,4.344177246E-2,1.526184082E-1
2.476612806E1,8.570861816E-2,-1.960144043E-1,-6.195068359E-3
2.481612806E1,3.416595459E-1,-4.269104004E-1,2.534027100E-1
2.486612806E1,1.761169434E-1,3.611755371E-2,3.837585449E-2
2.491612806E1,3.343353271E-1,3.397064209E-1,1.636199951E-1
2.496612806E1,3.190612793E-1,1.396530151E0,1.587219238E-1
2.501612806E1,-1.372375488E-1,-4.208068848E-1,-2.853698730E-1
2.506612806E1,3.001251221E-1,-6.694335938E-1,-2.636718750E-2
2.511612806E1,-3.907623291E-1,4.527282715E-1,2.494812012E-2
2.516612806E1,-2.960815430E-1,-2.558746338E-1,-3.073730469E-1
2.521612806E1,4.607849121E-1,1.381378174E-1,2.356872559E-1
2.526612806E1,1.938323975E-1,3.525390625E-1,4.327392578E-2
2.531612806E1,3.636474609E-1,-5.142669678E-1,-1.161651611E-1
2.536612806E1,3.256225586E-2,-4.134674072E-1,-3.519592285E-1
2.541612806E1,-2.038421631E-1,-2.192230225E-1,-3.647766113E-1
2.546612806E1,-3.003540039E-1,1.185760498E-1,-9.477233887E-2
2.551612806E1,-2.563629150E-1,-9.216308594E-2,-6.097412109E-1
2.556612806E1,-3.706054688E-1,2.810668945E-1,-4.185333252E-1
2.561612806E1,-3.620452881E-1,-1.501922607E-1,-1.619720459E-1
2.566612806E1,1.412963867E-1,7.465515137E-1,1.807098389E-1
2.571612806E1,-7.737731934E-2,2.535858154E-1,1.220703125E-1
2.576612806E1,3.679351807E-1,-7.317504883E-1,8.236694336E-2
2.581612806E1,1.962738037E-1,-1.514129639E-1,-7.095336914E-2
2.586612806E1,3.862609863E-1,7.765197754E-2,2.088165283E-1
2.591612806E1,4.094696045E-1,5.327453613E-1,2.979888916E-1
2.596612806E1,-1.775665283E-1,9.145507812E-1,1.886596680E-1
2.601612806E1,9.182739258E-2,-9.901428223E-1,-4.347229004E-2
2.606612806E1,-2.966766357E-1,3.708648682E-1,2.650146484E-1
2.611612806E1,-5.080566406E-1,-2.424316406E-1,3.682556152E-1
2.616612806E1,1.877288818E-1,-1.029968262E-2,4.238433838E-1
2.621612806E1,5.455017090E-2,4.973297119E-1,2.808990479E-1
2.626612806E1,3.807525635E-1,-2.998657227E-1,1.623840332E-1
2.631612806E1,1.370239258E-1,-3.187866211E-1,-1.912994385E-1
2.636612806E1,1.999359131E-1,-1.618041992E-1,-3.983917236E-1
2.641612806E1,-7.066345215E-2,3.659820557E-1,-2.358856201E-1
2.646612806E1,-8.415832520E-1,-6.828765869E-1,-7.221527100E-1
2.651612806E1,4.577331543E-1,3.916320801E-1,1.660614014E-1
2.656612806E1,-2.435455322E-1,3.635406494E-1,3.157196045E-1
2.661612806E1,1.229705811E-1,-2.876434326E-1,4.632568359E-2
2.666612806E1,-1.378631592E-1,5.254211426E-1,-1.515960693E-1
2.671612806E1,5.455017090E-2,-3.865966797E-1,2.240905762E-1
2.676612806E1,1.974945068E-1,-5.405426025E-1,2.949523926E-1
2.681612806E1,-8.654785156E-2,1.222534180E-1,1.452789307E-1
2.686612806E1,2.091064453E-1,-6.217803955E-1,6.011962891E-3
2.691612806E1,-1.342010498E-1,8.766784668E-1,3.961181641E-2
2.696612806E1,7.897949219E-2,-4.898376465E-1,-4.246520996E-1
2.701612806E1,-5.920410156E-3,4.600524902E-1,4.264831543E-2
2.706612806E1,-1.335754395E-1,-4.727325439E-1,3.175506592E-1
2.711612806E1,4.478454590E-2,7.337951660E-2,4.647674561E-1
2.716612806E1,-5.844116211E-2,3.274993896E-1,2.381286621E-1
2.721612806E1,5.023193359E-1,-4.941101074E-1,1.098480225E-1
2.726612806E1,1.174774170E-1,-1.538696289E-1,-1.234893799E-1
2.731612806E1,1.260375977E-1,-3.743743896E-1,-1.063842773E-1
2.736612806E1,-5.233764648E-2,-7.078552246E-2,-1.033325195E-1
2.741612806E1,-1.836700439E-1,5.327453613E-1,6.892395020E-2
2.746612806E1,-5.055999756E-1,-5.734252930E-2,-3.983917236E-1
2.751612806E1,1.831054688E-4,4.643402100E-1,1.519927979E-1
2.756612806E1,-4.029846191E-1,9.109497070E-2,9.091186523E-2
2.761612806E1,-1.464080811E-1,3.611755371E-2,-1.974029541E-1
2.766612806E1,-2.239990234E-1,4.350128174E-1,-1.833496094E-1
2.771612806E1,5.699157715E-2,-2.204437256E-1,1.239013672E-1
2.776612806E1,2.610321045E-1,-2.076110840E-1,2.912902832E-1
2.781612806E1,2.481994629E-1,1.289672852E-1,3.328247070E-1
2.786612806E1,1.962738037E-1,6.139984131E-1,1.507720947E-1
2.791612806E1,-1.195373535E-1,-8.917846680E-1,-1.851959229E-1
2.796612806E1,2.787475586E-1,4.026336670E-1,4.020690918E-2
2.801612806E1,-4.090881348E-1,-2.143402100E-1,-5.323791504E-2
2.806612806E1,-9.020996094E-2,-4.055328369E-1,1.471099854E-1
2.811612806E1,-2.386474609E-1,2.377014160E-1,-3.491210938E-2
2.816612806E1,3.734283447E-1,-5.539855957E-1,1.721649170E-1
2.821612806E1,-4.745483398E-2,-3.108520508E-1,-1.363220215E-1
2.826612806E1,1.156311035E-1,5.505371094E-2,2.676391602E-2
2.831612806E1,-1.427459717E-1,-7.749938965E-2,-1.705322266E-1
2.836612806E1,-1.325988770E-2,4.582214355E-1,9.396362305E-2
2.841612806E1,-2.649230957E-1,-2.717590332E-1,-5.590515137E-1
2.846612806E1,9.060668945E-2,2.016601562E-1,-2.902679443E-1
2.851612806E1,-4.891052246E-1,3.079528809E-1,-3.171386719E-1
2.856612806E1,-1.647949219E-3,4.172973633E-1,-2.010650635E-1
2.861612806E1,-1.384582520E-1,1.894378662E-1,6.011962891E-3
2.866612806E1,9.182739258E-2,-3.664398193E-1,1.471099854E-1
2.871612806E1,8.998107910E-2,-2.906951904E-1,1.550598145E-1
2.876612806E1,1.639099121E-1,-5.416870117E-3,1.733856201E-1
2.881612806E1,5.004882812E-1,4.704437256E-1,3.163299561E-1
2.886612806E1,-2.246093750E-1,3.177185059E-1,-1.841735840E-2
2.891612806E1,3.850402832E-1,-1.019287109E-1,6.097412109E-2
2.896612806E1,-3.339538574E-1,2.664031982E-1,9.335327148E-2
2.901612806E1,-1.763458252E-1,-6.588745117E-2,1.660614014E-1
2.906612806E1,-5.966186523E-2,1.637878418E-1,2.711181641E-1
2.911612806E1,4.722595215E-2,-1.850128174E-1,8.663940430E-2
2.916612806E1,2.811889648E-1,-4.977722168E-1,-5.628967285E-2
2.921612806E1,1.667785645E-2,-4.206848145E-2,-1.369323730E-1
2.926612806E1,3.056182861E-1,-2.699127197E-1,-2.085876465E-2
2.931612806E1,8.743286133E-3,2.444152832E-1,-3.796386719E-2
2.936612806E1,-5.703582764E-1,-1.825714111E-1,-1.809082031E-1
2.941612806E1,8.509826660E-2,-5.673217773E-2,3.288269043E-2
2.946612806E1,-2.698059082E-1,1.008605957E-1,2.247009277E-1
2.951612806E1,-4.562377930E-2,1.821136475E-1,-1.344909668E-1
2.956612806E1,3.500366211E-2,7.441101074E-1,-5.506896973E-2
2.961612806E1,-7.432556152E-2,6.542968750E-2,2.188110352E-2
2.966612806E1,2.384185791E-1,-6.987609863E-1,2.188110352E-2
2.971612806E1,1.639099121E-1,-8.360290527E-2,-9.965515137E-2
2.976612806E1,2.335357666E-1,2.450561523E-2,1.943969727E-2
2.981612806E1,2.371978760E-1,8.314666748E-1,2.271423340E-1
2.986612806E1,-1.842956543E-1,-5.246582031E-1,-1.680908203E-1
2.991612806E1,2.645874023E-2,3.604888916E-1,-1.902770996E-2
2.996612806E1,-3.357849121E-1,-1.709594727E-1,5.181884766E-2
3.001612806E1,-4.196166992E-2,1.124725342E-1,4.214019775E-1
3.006612806E1,-9.143066406E-2,1.857757568E-1,3.578643799E-1
3.011612806E1,3.312835693E-1,-6.382751465E-1,3.413696289E-1
3.016612806E1,7.522583008E-3,-4.678497314E-1,1.813201904E-1
3.021612806E1,1.553497314E-1,-4.250946045E-1,1.394653320E-2
3.026612806E1,-4.684448242E-2,5.932617188E-2,-2.456665039E-1
3.031612806E1,-3.553314209E-1,4.472351074E-1,-3.360748291E-1
3.036612806E1,-4.762878418E-1,-1.996765137E-1,-6.189117432E-1
3.041612806E1,-2.771301270E-1,7.948150635E-1,-5.599975586E-3
3.046612806E1,-5.404205322E-1,-2.247161865E-1,-2.010650635E-1
3.051612806E1,3.673248291E-1,4.148559570E-1,2.472991943E-1
3.056612806E1,-1.445770264E-1,8.528442383E-1,1.335144043E-2
3.061612806E1,4.424591064E-1,-8.587951660E-1,3.193817139E-1
3.066612806E1,3.465576172E-1,-3.120727539E-1,1.636199951E-1
3.071612806E1,1.070861816E-1,1.680603027E-1,-5.690002441E-2
3.076612806E1,3.978576660E-1,2.548065186E-1,-9.155273438E-5
3.081612806E1,-3.583831787E-1,4.795989990E-1,-1.858062744E-1
3.086612806E1,3.514404297E-1,-8.667449951E-1,1.843872070E-1
3.091612806E1,-6.088409424E-1,-3.120727539E-1,-1.057739258E-1
3.096612806E1,-3.479003906E-3,-1.397705078E-2,-1.088409424E-1
3.101612806E1,2.194976807E-1,7.508239746E-1,1.758270264E-1
3.106612806E1,2.420959473E-1,2.877807617E-2,-2.636718750E-2
3.111612806E1,2.188720703E-1,-9.101104736E-1,1.568908691E-1
3.116612806E1,1.168670654E-1,-3.914794922E-1,1.397857666E-1
3.121612806E1,-1.141357422E-2,3.164978027E-1,1.092376709E-1
3.126612806E1,-2.607727051E-2,5.486297607E-1,2.527923584E-1
3.131612806E1,-4.292449951E-1,-4.959411621E-1,-4.564208984E-1
3.136612806E1,1.083068848E-1,5.425262451E-1,1.336669922E-1
3.141612806E1,-3.003540039E-1,2.658081055E-1,-4.379272461E-3
3.146612806E1,-8.044433594E-2,4.502716064E-1,3.715515137E-2
3.151612806E1,-1.732940674E-1,3.220062256E-1,-1.754150391E-1
3.156612806E1,1.052551270E-1,-5.429840088E-1,1.177825928E-1
3.161612806E1,4.503936768E-1,-2.557373047E-2,2.014923096E-1
3.166612806E1,2.213134766E-1,3.733062744E-1,7.685852051E-2
3.171612806E1,5.414123535E-1,2.389526367E-2,2.216339111E-1
3.176612806E1,-1.855163574E-1,2.719116211E-1,-1.149444580E-1
3.181612806E1,4.577331543E-1,-8.264312744E-1,1.701354980E-2
3.186612806E1,-3.308868408E-1,-1.397705078E-2,-8.988952637E-2
3.191612806E1,-4.121398926E-1,-9.765625000E-2,9.947204590E-2
3.196612806E1,-9.265136719E-2,-3.230285645E-2,8.602905273E-2
3.201612806E1,-5.966186523E-2,-8.848571777E-2,5.609130859E-2
3.206612806E1,1.284790039E-1,-3.676605225E-1,3.349304199E-2
3.211612806E1,1.321411133E-1,1.479034424E-1,-4.286193848E-2
3.216612806E1,1.248168945E-1,-1.593475342E-1,-1.326446533E-1
3.221612806E1,1.901702881E-1,3.220062256E-1,-1.778564453E-1
3.226612806E1,-2.991180420E-1,5.272521973E-1,-2.774200439E-1
3.231612806E1,9.242248535E-2,-2.528228760E-1,-4.105987549E-1
3.236612806E1,-3.070678711E-1,-2.496337891E-2,-8.622741699E-2
3.241612806E1,-2.557525635E-1,-3.481140137E-1,-2.365112305E-1
3.246612806E1,1.545715332E-2,3.293304443E-1,-4.896545410E-2
3.251612806E1,9.486389160E-2,9.963989258E-2,-4.530334473E-2
3.256612806E1,3.764801025E-1,-4.116516113E-1,2.436370850E-1
3.261612806E1,2.549285889E-1,3.268890381E-1,2.216339111E-1
3.266612806E1,3.667144775E-1,-2.827606201E-1,1.746063232E-1
3.271612806E1,8.132934570E-3,7.960357666E-1,1.972045898E-1
3.276612806E1,-4.200897217E-1,-6.627197266E-1,-1.760253906E-1
3.281612806E1,-1.916198730E-1,2.810668945E-1,3.297576904E-1
3.286612806E1,-5.563049316E-1,-4.654083252E-1,2.222595215E-1
3.291612806E1,-2.624816895E-1,-1.563110352E-1,2.289733887E-1
3.296612806E1,-1.207580566E-1,2.621307373E-1,7.014465332E-2
3.301612806E1,2.390441895E-1,-4.782257080E-1,1.116790771E-1
3.306612806E1,2.017669678E-1,-4.122467041E-1,9.063720703E-3
3.311612806E1,1.968841553E-1,-1.037750244E-1,-1.198272705E-1
3.316612806E1,1.083068848E-1,-2.448730469E-1,-2.456665039E-1
3.321612806E1,-9.999084473E-2,2.383117676E-1,-3.030853271E-1
3.326612806E1,-2.453765869E-1,-1.312561035E-1,-4.698486328E-1
3.331612806E1,-1.342010498E-1,5.064849854E-1,2.870025635E-1
3.336612806E1,-2.062835693E-1,-2.002868652E-1,-1.796875000E-1
3.341612806E1,1.767272949E-1,3.226013184E-1,-2.310028076E-1
3.346612806E1,2.340698242E-2,5.926055908E-1,-7.829284668E-2
3.351612806E1,4.430694580E-1,-4.916687012E-1,3.654479980E-2
3.356612806E1,2.170410156E-1,1.020812988E-1,9.947204590E-2
3.361612806E1,1.486206055E-1,7.337951660E-2,-1.332702637E-1
3.366612806E1,3.355560303E-1,5.938262939E-1,1.153411865E-1
3.371612806E1,-4.524536133E-1,6.995239258E-1,-1.216583252E-1
3.376612806E1,2.781372070E-1,-6.718750000E-1,-2.880859375E-2
3.381612806E1,-4.268035889E-1,5.078125000E-2,6.011962891E-3
3.386612806E1,-2.588043213E-1,2.957305908E-1,1.428375244E-1
3.391612806E1,-1.800079346E-1,-1.666870117E-1,1.031341553E-1
3.396612806E1,2.329254150E-1,-3.963775635E-1,1.037445068E-1
3.401612806E1,1.645050049E-1,-1.153717041E-1,-4.713439941E-2
3.406612806E1,2.579650879E-1,-4.201965332E-1,-1.369323730E-1
3.411612806E1,6.738281250E-2,-3.413391113E-2,-3.360748291E-1
3.416612806E1,5.821228027E-2,5.962829590E-1,-1.204376221E-1
3.421612806E1,-7.695007324E-1,-5.026702881E-1,-5.743103027E-1
3.426612806E1,2.616424561E-1,3.635406494E-1,4.183349609E-1
3.431612806E1,-3.186798096E-1,7.007446289E-1,5.118103027E-1
3.436612806E1,-7.141113281E-3,-4.440155029E-1,-2.330017090E-2
3.441612806E1,-1.922302246E-1,3.250579834E-1,4.571533203E-2
3.446612806E1,1.144104004E-1,-2.357177734E-1,2.118682861E-1
3.451612806E1,2.653045654E-1,-1.618041992E-1,2.014923096E-1
3.456612806E1,2.188720703E-1,-6.027221680E-3,1.953735352E-1
3.461612806E1,4.045867920E-1,2.713012695E-1,1.587219238E-1
3.466612806E1,-9.814453125E-2,1.091690063E0,2.472991943E-1
3.471612806E1,2.329254150E-1,-6.859283447E-1,-3.491210938E-2
3.476612806E1,-3.742675781E-1,2.303771973E-1,7.380676270E-2
3.481612806E1,-3.742675781E-1,-1.898956299E-1,1.232910156E-1
3.486612806E1,-2.997436523E-1,1.497344971E-1,1.513977051E-1
3.491612806E1,-6.333923340E-2,-9.078979492E-3,1.153411865E-1
3.496612806E1,7.960510254E-2,-2.283782959E-1,1.006927490E-1
3.501612806E1,-2.612457275E-1,-8.177185059E-2,-1.674804688E-1
3.506612806E1,1.058654785E-1,-9.284362793E-1,-2.847595215E-1
3.511612806E1,-8.105468750E-2,4.973297119E-1,-2.927093506E-1
3.516612806E1,-1.433563232E-1,4.881591797E-1,-1.735839844E-1
3.521612806E1,1.516876221E-1,-9.125518799E-1,-2.383270264E-1
3.526612806E1,1.339721680E-1,1.290893555E-2,9.701538086E-2
3.531612806E1,-3.260040283E-1,-8.116149902E-2,-2.169494629E-1
3.536612806E1,-6.088256836E-2,-3.585815430E-3,-2.114562988E-1
3.541612806E1,-1.622924805E-1,3.427734375E-1,2.006530762E-2
3.546612806E1,2.060546875E-1,-4.000396729E-1,2.344665527E-1
3.551612806E1,2.152099609E-1,2.969512939E-1,2.356872559E-1
3.556612806E1,1.186981201E-1,-2.008056641E-2,1.184082031E-1
3.561612806E1,4.277954102E-1,3.653717041E-1,2.845611572E-1
3.566612806E1,-1.867370605E-1,-3.200073242E-1,3.227233887E-2
3.571612806E1,8.448791504E-2,4.179077148E-1,1.495513916E-1
3.576612806E1,-4.762878418E-1,-9.216308594E-2,-2.453613281E-2
3.581612806E1,-2.111663818E-1,-2.082214355E-1,1.403961182E-1
3.586612806E1,-6.455993652E-2,2.480773926E-1,2.961730957E-1
3.591612806E1,1.290740967E-1,-3.743743896E-1,2.045288086E-1
3.596612806E1,2.767944336E-2,-2.900848389E-1,1.760864258E-2
3.601612806E1,-2.973937988E-2,-3.045654297E-2,4.815673828E-2
3.606612806E1,1.125946045E-1,-5.112152100E-1,-6.301879883E-2
3.611612806E1,1.150360107E-1,3.849182129E-1,-4.347229004E-2
3.616612806E1,-4.414520264E-1,-1.141510010E-1,-4.814605713E-1
3.621612806E1,2.341461182E-1,1.779174805E-2,-1.363220215E-1
3.626612806E1,-2.001647949E-1,-1.335144043E-2,1.006927490E-1
3.631612806E1,8.326721191E-2,-2.618408203E-2,-8.317565918E-2
3.636612806E1,-1.121978760E-1,4.337921143E-1,2.372741699E-2
3.641612806E1,1.174774170E-1,-3.297882080E-1,2.411956787E-1
3.646612806E1,2.817993164E-1,-3.890380859E-1,3.792419434E-1
3.651612806E1,4.539489746E-2,3.446044922E-1,2.738952637E-2
3.656612806E1,2.127685547E-1,9.597778320E-2,1.519927979E-1
3.661612806E1,2.584838867E-2,1.254791260E0,2.711181641E-1
3.666612806E1,5.065917969E-3,-4.831237793E-1,-1.155395508E-1
3.671612806E1,-3.218078613E-2,3.830871582E-1,2.552337646E-1
3.676612806E1,-2.363586426E-2,-3.517761230E-1,1.513977051E-1
3.681612806E1,-1.080322266E-2,-1.763916016E-2,3.102111816E-1
3.686612806E1,-1.751251221E-1,2.462463379E-1,1.025238037E-1
3.691612806E1,2.591857910E-1,-6.346130371E-1,1.770477295E-1
3.696612806E1,-1.201477051E-1,-9.765625000E-2,-7.951354980E-2
3.701612806E1,2.103271484E-1,-7.994079590E-2,1.672821045E-1
3.706612806E1,-1.787872314E-1,-1.746368408E-1,-1.638183594E-1
3.711612806E1,-1.006011963E-1,5.687866211E-1,1.335144043E-2
3.716612806E1,-6.717529297E-1,-6.260681152E-1,-6.115722656E-1
3.721612806E1,3.392181396E-1,5.651245117E-1,1.923217773E-1
3.726612806E1,-2.729797363E-2,4.191284180E-1,1.953735352E-1
3.731612806E1,1.272583008E-1,-1.000976562E-1,2.075958252E-1
3.736612806E1,-2.637023926E-1,2.713012695E-1,-1.412048340E-1
3.741612806E1,-4.867553711E-2,-1.856231689E-1,-9.262084961E-3
3.746612806E1,6.860351562E-2,-3.120727539E-1,-8.134460449E-2
3.751612806E1,1.981048584E-1,1.998291016E-1,-4.173126221E-1
3.756612806E1,2.628631592E-1,5.651245117E-1,-2.212219238E-1
3.761612806E1,-4.440307617E-2,6.115570068E-1,2.014923096E-1
3.766612806E1,4.662780762E-1,-1.238769531E0,-2.330017090E-2
3.771612806E1,-7.005310059E-2,8.968200684E-1,2.338562012E-1
3.776612806E1,-4.341278076E-1,4.649353027E-2,2.045288086E-1
3.781612806E1,8.743286133E-3,-7.189025879E-1,4.861450195E-1
3.786612806E1,-1.983337402E-1,1.595001221E-1,5.606689453E-1
3.791612806E1,-5.310058594E-3,-3.438415527E-1,4.861450195E-1
3.796612806E1,1.229705811E-1,-9.259948730E-1,3.438110352E-1
3.801612806E1,1.987152100E-1,-4.317932129E-1,1.629943848E-1
3.806612806E1,9.242248535E-2,-2.008056641E-2,1.935424805E-1
3.811612806E1,-2.740783691E-1,-8.423156738E-1,-1.216583252E-1
3.816612806E1,6.982421875E-2,6.445465088E-1,1.226806641E-1
3.821612806E1,-2.301025391E-2,-8.789062500E-2,5.563964844E-1
3.826612806E1,2.463684082E-1,-2.760314941E-1,9.552917480E-1
3.831612806E1,-1.293029785E-1,1.136932373E-1,7.683715820E-1
3.836612806E1,-8.288574219E-2,-4.177551270E-1,8.056335449E-1
3.841612806E1,5.149841309E-2,-2.216644287E-1,9.491882324E-1
3.846612806E1,-6.883239746E-2,4.942626953E-1,7.268371582E-1
3.851612806E1,5.334777832E-1,-9.582519531E-2,1.266235352E0
3.856612806E1,5.292053223E-1,6.298828125E-2,1.316314697E0
3.861612806E1,5.896759033E-1,3.262786865E-1,1.388397217E0
3.866612806E1,5.029296875E-1,-3.896636963E-1,7.537078857E-1
3.871612806E1,-3.962554932E-1,9.114837646E-1,7.854766846E-1
3.876612806E1,4.905700684E-2,9.353637695E-2,1.295547485E0
3.881612806E1,2.951049805E-2,4.588317871E-1,1.340148926E0
3.886612806E1,-1.073150635E-1,-1.453094482E-1,1.241180420E0
3.891612806E1,2.982940674E-1,-4.379119873E-1,1.104965210E0
3.896612806E1,1.541290283E-1,2.822875977E-1,7.402801514E-1
3.901612806E1,1.602325439E-1,-2.748107910E-1,4.886016846E-1
3.906612806E1,1.046447754E-1,2.651824951E-1,3.841400146E-1
3.911612806E1,-7.200164795E-1,2.523651123E-1,1.636199951E-1
3.916612806E1,-1.574096680E-1,2.993927002E-1,4.934844971E-1
3.921612806E1,-2.716369629E-1,9.646301270E-1,1.385360718E0
3.926612806E1,-2.881317139E-1,-5.429077148E-2,1.280273438E0
3.931612806E1,4.600524902E-2,-2.925262451E-1,6.095428467E-1
3.936612806E1,-2.184906006E-1,1.546173096E-1,4.568328857E-1
3.941612806E1,2.298736572E-1,-2.222747803E-1,4.696502686E-1
3.946612806E1,1.028137207E-1,1.081848145E-1,5.356292725E-1
3.951612806E1,2.378234863E-1,1.173553467E-1,3.236541748E-1
3.956612806E1,2.921752930E-1,7.319030762E-1,4.049072266E-1
3.961612806E1,-1.274719238E-1,2.053817749E0,6.278686523E-1
3.966612806E1,4.326934814E-1,-1.389038086E0,6.669616699E-1
3.971612806E1,4.412384033E-1,-5.967407227E-1,6.956787109E-1
3.976612806E1,-7.676696777E-2,6.628723145E-1,4.336090088E-1
3.981612806E1,3.990173340E-2,-3.346710205E-1,5.722808838E-1
3.986612806E1,2.793579102E-1,-5.417633057E-1,3.969573975E-1
3.991612806E1,-7.310485840E-2,-2.557373047E-2,3.144989014E-1
3.996612806E1,2.720336914E-1,-2.253265381E-1,1.629943848E-1
4.001612806E1,-1.433563232E-1,8.314514160E-2,-1.149444580E-1
4.006612806E1,1.403808594E-3,3.788146973E-1,-4.040527344E-2
4.011612806E1,-9.368743896E-1,-1.892852783E-1,-5.987396240E-1
4.016612806E1,-2.258300781E-3,2.865753174E-1,-2.175598145E-1
4.021612806E1,-3.217315674E-1,8.473510742E-1,3.542022705E-1
4.026612806E1,-1.445770264E-1,-6.712646484E-1,2.799987793E-2
4.031612806E1,1.260375977E-1,1.362915039E-1,-1.536560059E-2
4.036612806E1,8.087158203E-4,4.014129639E-1,8.175659180E-2
4.041612806E1,4.320678711E-1,-2.632141113E-1,2.277526855E-1
4.046612806E1,1.516876221E-1,7.032775879E-2,1.654357910E-1
4.051612806E1,2.445373535E-1,-1.144409180E-3,1.489562988E-1
4.056612806E1,2.689666748E-1,1.105133057E0,3.841400146E-1
4.061612806E1,-2.191009521E-1,-3.682708740E-1,2.870025635E-1
4.066612806E1,4.417419434E-2,-1.465301514E-1,1.843872070E-1
4.071612806E1,-4.255828857E-1,-3.560638428E-1,1.794891357E-1
4.076612806E1,6.677246094E-2,-6.566009521E-1,3.193817139E-1
4.081612806E1,-8.361816406E-3,9.658813477E-2,1.623840332E-1
4.086612806E1,1.040344238E-1,7.154846191E-2,3.166198730E-2
4.091612806E1,1.547393799E-1,-2.363281250E-1,1.028442383E-2
4.096612806E1,8.387756348E-2,-1.569061279E-1,-2.218475342E-1
4.101612806E1,5.691528320E-3,-4.695129395E-2,-6.057739258E-2
4.106612806E1,-1.390838623E-1,6.274414062E-1,1.000823975E-1
4.111612806E1,-4.604034424E-1,-6.932525635E-1,-4.142761230E-1
4.116612806E1,2.701873779E-1,5.113677979E-1,3.493041992E-1
4.121612806E1,-3.040161133E-1,-1.532440186E-1,-6.195068359E-3
4.126612806E1,2.084960938E-1,-4.287567139E-1,-1.644134521E-1
4.131612806E1,-3.302917480E-1,8.088684082E-1,-1.344909668E-1
4.136612806E1,2.469787598E-1,-3.065795898E-1,6.892395020E-2
4.141612806E1,3.434906006E-1,-2.540435791E-1,2.289733887E-1
4.146612806E1,3.073120117E-2,2.364807129E-1,1.422271729E-1
4.151612806E1,5.762481689E-1,-2.412109375E-1,1.739959717E-1
4.156612806E1,-5.844116211E-2,7.966461182E-1,-2.207946777E-2
4.161612806E1,-8.227539062E-2,-1.868438721E-1,-1.357116699E-1
4.166612806E1,-5.752410889E-1,6.971740723E-2,-5.140686035E-2
4.171612806E1,-3.797607422E-1,-4.165344238E-1,4.264831543E-2
4.176612806E1,-1.604614258E-1,1.705017090E-1,1.701354980E-2
4.181612806E1,-8.410644531E-2,7.093811035E-2,-3.247070312E-2
4.186612806E1,2.995147705E-1,-3.267364502E-1,-5.201721191E-2
4.191612806E1,1.742858887E-1,1.222534180E-1,-1.668548584E-1
4.196612806E1,2.524871826E-1,-2.381591797E-1,-4.774475098E-2
4.201612806E1,1.180877686E-1,4.521179199E-1,-3.562316895E-1
4.206612806E1,-5.446929932E-1,-4.817199707E-2,-4.961242676E-1
4.211612806E1,-8.044433594E-2,-3.865966797E-1,-5.199432373E-1
4.216612806E1,-9.326171875E-2,3.073425293E-1,8.175659180E-2
4.221612806E1,-1.647491455E-1,1.827239990E-1,7.232666016E-3
4.226612806E1,4.234313965E-2,-1.135406494E-1,-2.267303467E-1
4.231612806E1,2.523803711E-2,1.149139404E-1,6.159973145E-2
4.236612806E1,2.885131836E-1,-1.813507080E-1,1.495513916E-1
4.241612806E1,1.831054688E-4,9.414672852E-2,3.961181641E-2
4.246612806E1,1.535186768E-1,6.971740723E-2,2.424163818E-1
4.251612806E1,1.394653320E-1,6.836395264E-1,1.489562988E-1
4.256612806E1,-4.109191895E-1,1.124725342E-1,-3.430175781E-2
4.261612806E1,2.176513672E-1,-4.525756836E-1,-3.308105469E-2
4.266612806E1,-3.437194824E-1,1.167449951E-1,1.269531250E-1
4.271612806E1,-1.580200195E-1,-4.360809326E-1,1.245117188E-1
4.276612806E1,4.295349121E-2,1.271362305E-1,2.008666992E-1
4.281612806E1,2.152099609E-1,-2.839813232E-1,6.343078613E-2
4.286612806E1,3.318939209E-1,-1.153717041E-1,9.274291992E-2
4.291612806E1,3.966369629E-1,-2.008056641E-2,-7.156372070E-2
4.296612806E1,3.966369629E-1,-3.725585938E-1,-2.817077637E-1
4.301612806E1,-1.280822754E-1,2.908477783E-1,-4.368591309E-1
4.306612806E1,-1.018127441E0,-5.967407227E-1,-8.424835205E-1
4.311612806E1,1.266326904E-1,6.054534912E-1,3.633575439E-1
4.316612806E1,-2.191009521E-1,1.912689209E-1,2.411956787E-1
4.321612806E1,1.077117920E-1,-2.839813232E-1,-7.766723633E-2
4.326612806E1,1.240539551E-2,2.951202393E-1,3.837585449E-2
4.331612806E1,4.051971436E-1,-6.039428711E-2,2.527923584E-1
4.336612806E1,3.312835693E-1,3.367614746E-2,1.263427734E-1
4.341612806E1,2.243804932E-1,-7.933044434E-2,-3.125000000E-2
4.346612806E1,2.677459717E-1,3.061218262E-1,1.135253906E-1
4.351612806E1,4.234313965E-2,7.886962891E-1,1.208496094E-1
4.356612806E1,2.340698242E-2,-8.081054688E-1,-2.407684326E-1
4.361612806E1,-1.757354736E-1,4.728851318E-1,-2.819824219E-2
4.366612806E1,-3.871002197E-1,-2.228851318E-1,5.181884766E-2
4.371612806E1,-2.178802490E-1,-3.426208496E-1,6.587219238E-2
4.376612806E1,-4.745483398E-2,3.073425293E-1,9.274291992E-2
4.381612806E1,1.083068848E-1,-2.167816162E-1,1.638793945E-2
4.386612806E1,2.213134766E-1,-4.049224854E-1,-9.295654297E-2
4.391612806E1,-4.089355469E-3,-3.377380371E-1,-3.440093994E-1
4.396612806E1,-2.789306641E-2,-9.460449219E-2,-3.647766113E-1
4.401612806E1,-5.538635254E-1,4.209594727E-1,-4.637451172E-1
4.406612806E1,-2.453765869E-1,-4.145812988E-2,-4.625244141E-1
4.411612806E1,-3.950500488E-2,2.926788330E-1,1.886596680E-1
4.416612806E1,-4.133605957E-2,-1.141510010E-1,-4.164123535E-2
4.421612806E1,3.439331055E-2,3.549957275E-1,-1.998443604E-1
4.426612806E1,-3.767395020E-2,3.060913086E-2,-1.963806152E-2
4.431612806E1,2.249908447E-1,-4.996185303E-1,-8.805847168E-2
4.436612806E1,-4.806518555E-2,6.481933594E-2,-5.445861816E-2
4.441612806E1,2.066650391E-1,-1.697387695E-1,5.731201172E-2
4.446612806E1,9.976196289E-2,6.457672119E-1,-7.431030273E-3
4.451612806E1,-1.097564697E-1,5.944519043E-1,2.534027100E-1
4.456612806E1,8.753967285E-2,-5.417633057E-1,-4.408264160E-2
4.461612806E1,-2.197113037E-1,1.338500977E-1,2.185821533E-1
4.466612806E1,-2.606506348E-1,3.305053711E-2,2.503509521E-1
4.471612806E1,-1.415252686E-1,-2.656555176E-1,2.583007812E-1
4.476612806E1,-6.944274902E-2,1.901245117E-2,1.660614014E-1
4.481612806E1,1.791687012E-1,-2.693176270E-1,1.471099854E-1
4.486612806E1,7.287597656E-2,-1.844024658E-1,-2.270507812E-2
4.491612806E1,-2.123870850E-1,-3.963775635E-1,-2.957611084E-1
4.496612806E1,-6.272888184E-2,6.195068359E-3,-1.204376221E-1
4.501612806E1,-6.577148438E-1,2.706909180E-1,-1.943511963E-1
4.506612806E1,-1.256408691E-1,-3.078002930E-1,-2.169494629E-1
4.511612806E1,2.340698242E-2,9.475708008E-2,3.462677002E-1
4.516612806E1,-1.128082275E-1,2.822875977E-1,7.232666016E-3
4.521612806E1,3.013458252E-1,1.570587158E-1,2.250671387E-2
4.526612806E1,1.718444824E-1,1.027069092E-1,7.931518555E-2
4.531612806E1,2.066650391E-1,-2.313232422E-2,5.242919922E-2
4.536612806E1,1.052551270E-1,1.967773438E-1,-8.744812012E-2
4.541612806E1,1.364135742E-1,-8.848571777E-2,1.516723633E-2
4.546612806E1,2.005462646E-1,6.311035156E-1,2.027130127E-1
4.551612806E1,-3.088989258E-1,-8.093261719E-1,-2.322235107E-1
4.556612806E1,5.157623291E-1,2.951202393E-1,1.477355957E-1
4.561612806E1,-3.699951172E-1,4.325714111E-1,-1.094360352E-1
4.566612806E1,7.287597656E-2,-8.435363770E-1,2.375183105E-1
4.571612806E1,-5.722045898E-2,-2.412109375E-1,2.250671387E-2
4.576612806E1,-1.115875244E-1,3.245544434E-2,-3.002929688E-2
4.581612806E1,1.486206055E-1,-4.702911377E-1,5.401611328E-3
4.586612806E1,-7.751464844E-3,-2.509918213E-1,-2.047424316E-1
4.591612806E1,-8.227539062E-2,-9.704589844E-2,-2.047424316E-1
4.596612806E1,6.066894531E-2,4.136199951E-1,-3.674316406E-2
4.601612806E1,-3.577728271E-1,-2.974243164E-1,-6.354064941E-1
4.606612806E1,3.850402832E-1,3.873596191E-1,1.086273193E-1
4.611612806E1,-1.170959473E-1,2.492980957E-1,1.972045898E-1
4.616612806E1,2.462768555E-2,-2.679443359E-2,1.091003418E-2
4.621612806E1,-4.499816895E-2,2.016601562E-1,6.343078613E-2
4.626612806E1,1.791687012E-1,-9.582519531E-2,2.149200439E-1
4.631612806E1,2.940216064E-1,-6.527709961E-2,8.236694336E-2
4.636612806E1,8.132934570E-3,3.220062256E-1,1.159667969E-1
4.641612806E1,1.987152100E-1,1.228332520E-2,7.441711426E-2
4.646612806E1,-2.679748535E-1,1.157669067E0,2.527923584E-1
4.651612806E1,2.371978760E-1,-5.735321045E-1,4.205322266E-2
4.656612806E1,-4.377746582E-2,-4.055328369E-1,4.264831543E-2
4.661612806E1,-3.382263184E-1,2.468566895E-1,1.823425293E-2
4.666612806E1,-1.940612793E-1,-3.554382324E-1,1.049652100E-1
4.671612806E1,2.469787598E-1,-3.126831055E-1,1.220703125E-1
4.676612806E1,1.070861816E-1,1.320190430E-1,4.205322266E-2
4.681612806E1,3.031768799E-1,-9.338378906E-2,7.807922363E-2
4.686612806E1,-1.103668213E-1,6.910705566E-2,-2.566528320E-1
4.691612806E1,-5.310058594E-3,3.843078613E-1,-1.906890869E-1
4.696612806E1,-2.490386963E-1,3.195648193E-1,-1.699218750E-1
4.701612806E1,-3.144073486E-1,-4.672393799E-1,-6.311187744E-1
4.706612806E1,-3.260040283E-1,1.228332520E-2,1.978149414E-1
4.711612806E1,-3.070678711E-1,1.417999268E-1,2.369079590E-1
4.716612806E1,1.828308105E-1,-6.161499023E-2,2.754058838E-1
4.721612806E1,-1.019287109E-2,7.643127441E-2,2.185821533E-1
4.726612806E1,3.062438965E-1,-3.023071289E-1,4.998779297E-2
4.731612806E1,1.180877686E-1,-1.196594238E-1,5.242919922E-2
4.736612806E1,2.891387939E-1,1.472930908E-1,1.636199951E-1
4.741612806E1,7.350158691E-2,7.019653320E-1,1.220703125E-1
4.746612806E1,2.005462646E-1,-4.904479980E-1,-1.687011719E-1
4.751612806E1,-1.622924805E-1,7.147979736E-1,6.011962891E-3
4.756612806E1,-1.989440918E-1,-3.126831055E-1,1.886596680E-1
4.761612806E1,1.419067383E-1,-1.856231689E-1,4.415435791E-1
4.766612806E1,1.301574707E-2,-1.251373291E-1,1.550598145E-1
4.771612806E1,2.683563232E-1,-2.729797363E-1,1.660614014E-1
4.776612806E1,-5.294799805E-2,-2.870178223E-1,-2.456665039E-1
4.781612806E1,1.608428955E-1,-4.812927246E-1,-1.576995850E-1
4.786612806E1,-7.920837402E-2,2.541961670E-1,-2.639923096E-1
4.791612806E1,7.226562500E-2,5.327453613E-1,-2.194061279E-1
4.796612806E1,-5.685272217E-1,-6.053009033E-1,-8.522644043E-1
4.801612806E1,6.005859375E-2,5.383300781E-2,1.013031006E-1
4.806612806E1,-4.402313232E-1,-2.473297119E-1,-1.277618408E-1
4.811612806E1,2.958526611E-1,6.665039062E-2,5.426025391E-2
4.816612806E1,-5.538940430E-2,4.741058350E-1,5.364990234E-2
4.821612806E1,4.681243896E-1,-3.456726074E-1,2.222595215E-1
4.826612806E1,1.425170898E-1,4.008026123E-1,1.617736816E-1
4.831612806E1,2.891387939E-1,-8.482360840E-2,8.663940430E-2
4.836612806E1,4.009246826E-1,7.685546875E-1,2.631835938E-1
4.841612806E1,-2.191009521E-1,-3.114624023E-1,-4.103088379E-2
4.846612806E1,1.926116943E-1,1.582794189E-1,9.642028809E-2
4.851612806E1,-4.585571289E-1,-5.795288086E-2,-8.683776855E-2
4.856612806E1,-1.201477051E-1,-2.241058350E-1,1.281738281E-1
4.861612806E1,-1.019287109E-2,3.122253418E-1,5.853271484E-2
4.866612806E1,2.836303711E-1,-1.049957275E-1,-1.536560059E-2
4.871612806E1,2.042236328E-1,-3.670501709E-1,-4.347229004E-2
4.876612806E1,9.915161133E-2,-4.098052979E-1,-3.666229248E-1
4.881612806E1,-3.767395020E-2,-2.906951904E-1,-3.134765625E-1
4.886612806E1,2.279663086E-2,5.968933105E-1,-1.613616943E-1
4.891612806E1,-6.021118164E-1,-4.843444824E-1,-8.540954590E-1
4.896612806E1,1.639099121E-1,-4.878234863E-2,-1.888580322E-1
4.901612806E1,-4.408569336E-1,1.412963867E-2,-6.195068359E-3
4.906612806E1,1.174774170E-1,-6.283569336E-2,-1.069946289E-1
4.911612806E1,-8.959960938E-2,1.894378662E-1,-6.362915039E-2
4.916612806E1,2.665252686E-1,-2.418212891E-1,1.190185547E-1
4.921612806E1,1.871185303E-1,-1.147613525E-1,1.721649170E-1
4.926612806E1,2.103271484E-1,-1.029968262E-2,1.483306885E-1
4.931612806E1,3.349456787E-1,5.009918213E-1,1.544342041E-1
4.936612806E1,-2.087249756E-1,2.743530273E-1,5.609130859E-2
4.941612806E1,3.331146240E-1,-1.294250488E-1,1.318511963E-1
4.946612806E1,-3.547210693E-1,6.182708740E-1,1.006927490E-1
4.951612806E1,-1.781768799E-1,-3.878173828E-1,3.316040039E-1
4.956612806E1,2.645874023E-2,-5.673217773E-2,1.868286133E-1
4.961612806E1,1.260375977E-1,1.411743164E-1,2.051544189E-1
4.966612806E1,3.911437988E-1,-3.817138672E-1,1.434478760E-1
4.971612806E1,1.394653320E-1,-1.837921143E-1,-2.035217285E-1
4.976612806E1,1.388549805E-1,-5.698699951E-1,-3.049163818E-1
4.981612806E1,-1.513061523E-1,5.693969727E-1,-2.884216309E-1
4.986612806E1,-3.650970459E-1,-1.935577393E-1,-5.486602783E-1
4.991612806E1,2.767944336E-2,6.054687500E-2,-5.712585449E-1
4.996612806E1,-4.127502441E-1,1.179656982E-1,-2.138977051E-1
5.001612806E1,-3.150024414E-1,-1.801300049E-1,3.471374512E-2
5.006612806E1,1.333618164E-1,3.103942871E-1,2.466888428E-1
5.011612806E1,-4.699707031E-3,4.405212402E-2,4.372863770E-1
5.016612806E1,2.323150635E-1,-4.214172363E-1,3.566436768E-1
5.021612806E1,-2.178955078E-2,4.979248047E-1,9.457397461E-2
5.026612806E1,1.461791992E-1,-1.630249023E-1,2.051544189E-1
5.031612806E1,1.486206055E-1,1.111862183E0,3.401489258E-1
5.036612806E1,-1.415252686E-1,-8.746795654E-1,-5.590515137E-1
5.041612806E1,1.254119873E-1,-3.731536865E-1,-3.247070312E-2
5.046612806E1,-3.290710449E-1,3.953094482E-1,-3.430175781E-2
5.051612806E1,2.584838867E-2,-3.181915283E-1,2.066040039E-2
5.056612806E1,1.694030762E-1,-2.045593262E-1,1.232910156E-1
5.061612806E1,1.590118408E-1,-3.139038086E-1,4.449462891E-2
5.066612806E1,-6.394958496E-2,-9.155273438E-2,2.210235596E-1
5.071612806E1,-1.158752441E-1,-3.517761230E-1,8.602905273E-2
5.076612806E1,-4.928588867E-2,1.265106201E-1,1.147460938E-1
5.081612806E1,-2.966766357E-1,3.818664551E-1,-2.024841309E-2
5.086612806E1,-1.079254150E-1,-5.332031250E-1,-3.861694336E-1
5.091612806E1,-1.286926270E-1,6.402587891E-1,2.424163818E-1
5.096612806E1,-2.380371094E-1,-1.184387207E-1,3.166198730E-2
5.101612806E1,2.158203125E-1,1.210327148E-1,2.494812012E-2
5.106612806E1,-8.593750000E-2,2.309722900E-1,2.922058105E-2
5.111612806E1,2.848510742E-1,-6.303405762E-1,4.693603516E-2
5.116612806E1,6.372070312E-2,1.900482178E-1,4.083251953E-2
5.121612806E1,1.730651855E-1,1.992187500E-1,-1.338806152E-1
5.126612806E1,1.645050049E-1,4.612731934E-1,1.275634766E-1
5.131612806E1,-4.738464355E-1,-1.320617676E0,-5.443878174E-1
5.136612806E1,2.653045654E-1,5.052642822E-1,1.013031006E-1
5.141612806E1,-4.145812988E-1,1.986083984E-1,4.876708984E-2
5.146612806E1,1.022033691E-1,-4.275360107E-1,4.385070801E-1
5.151612806E1,-6.639099121E-2,2.676239014E-1,1.770477295E-1
5.156612806E1,1.852874756E-1,-1.489715576E-1,6.709289551E-2
5.161612806E1,2.598114014E-1,-3.786621094E-1,2.128601074E-2
5.166612806E1,1.138153076E-1,-2.485504150E-1,-2.609405518E-1
5.171612806E1,6.555175781E-2,-5.368041992E-2,-1.925201416E-1
5.176612806E1,-7.798767090E-2,6.811981201E-1,-1.656341553E-1
5.181612806E1,-5.373687744E-1,-2.870178223E-1,-6.989288330E-1
5.186612806E1,3.073120117E-2,2.028808594E-1,3.532409668E-2
5.191612806E1,-3.883209229E-1,-1.776885986E-1,-4.286193848E-2
5.196612806E1,1.962738037E-1,-7.749938965E-2,1.335144043E-2
5.201612806E1,-4.074096680E-2,2.572479248E-1,6.770324707E-2
5.206612806E1,3.007354736E-1,-3.609466553E-1,1.086273193E-1
5.211612806E1,2.157592773E-2,9.536743164E-2,1.884460449E-2
5.216612806E1,2.072753906E-1,1.589050293E-1,9.886169434E-2
5.221612806E1,1.327514648E-1,6.414794922E-1,2.845611572E-1
5.226612806E1,-1.751251221E-1,-2.679443359E-2,-3.552246094E-2
5.231612806E1,1.999359131E-1,-3.988189697E-1,-1.344909668E-1
5.236612806E1,-3.498382568E-1,3.678131104E-1,5.670166016E-2
5.241612806E1,-1.867370605E-1,-1.776885986E-1,2.876129150E-1
5.246612806E1,5.639648438E-2,-2.430419922E-1,3.288269043E-2
5.251612806E1,9.486389160E-2,1.106414795E-1,-7.156372070E-2
5.256612806E1,2.213134766E-1,-3.475036621E-1,6.404113770E-2
5.261612806E1,6.555175781E-2,-3.542175293E-1,-1.772460938E-1
5.266612806E1,-1.692199707E-2,-3.535461426E-2,-7.644653320E-2
5.271612806E1,-2.637023926E-1,4.368438721E-1,4.693603516E-2
5.276612806E1,-5.862274170E-1,-4.709014893E-1,-4.356384277E-1
5.281612806E1,1.260375977E-1,7.642669678E-1,3.144989014E-1
5.286612806E1,-1.488647461E-1,5.559539795E-1,1.403961182E-1
5.291612806E1,1.968841553E-1,-1.941833496E-1,-3.158569336E-3
5.296612806E1,-8.105468750E-2,4.240112305E-1,-1.063842773E-1
5.301612806E1,1.486206055E-1,-3.151245117E-1,-6.240844727E-2
5.306612806E1,3.557128906E-1,-1.825714111E-1,4.571533203E-2
5.311612806E1,5.271911621E-2,7.521057129E-2,-1.778564453E-1
5.316612806E1,2.714080811E-1,2.084350586E-2,-4.469299316E-2
5.321612806E1,-5.050659180E-2,1.580398560E0,1.904907227E-1
5.326612806E1,3.135681152E-1,-4.476776123E-1,1.943969727E-2
5.331612806E1,-1.451873779E-1,-3.505554199E-1,1.312255859E-1
5.336612806E1,-3.388366699E-1,1.619567871E-1,1.135253906E-1
5.341612806E1,-2.973022461E-1,-1.392059326E-1,1.281738281E-1
5.346612806E1,2.584838867E-2,-2.564849854E-1,1.605529785E-1
5.351612806E1,8.692932129E-2,1.057434082E-1,1.410064697E-1
5.356612806E1,3.845214844E-3,-1.446990967E-1,-2.542114258E-1
5.361612806E1,1.301574707E-2,-6.651611328E-1,3.227233887E-2
5.366612806E1,-1.861114502E-1,3.195648193E-1,-3.654022217E-1
5.371612806E1,-9.136657715E-1,-1.978454590E-1,-5.211639404E-1
5.376612806E1,2.811889648E-1,4.100036621E-2,-6.546020508E-2
5.381612806E1,-2.942352295E-1,4.783782959E-1,1.208496094E-1
5.386612806E1,3.496093750E-1,-8.422851562E-2,-1.210479736E-1
5.391612806E1,2.219390869E-1,6.255950928E-1,-9.477233887E-2
5.396612806E1,9.730529785E-2,-5.062866211E-2,5.731201172E-2
5.401612806E1,4.119110107E-1,-4.971618652E-1,1.886596680E-1
5.406612806E1,1.327514648E-1,1.723480225E-1,7.502746582E-2
5.411612806E1,3.099060059E-1,2.532958984E-3,1.575012207E-1
5.416612806E1,1.125946045E-1,7.709960938E-1,1.884460449E-2
5.421612806E1,-2.032165527E-1,-6.529388428E-1,-3.244628906E-1
5.426612806E1,-2.233886719E-1,6.402587891E-1,-1.894683838E-1
5.431612806E1,-4.866638184E-1,-2.577056885E-1,-7.400512695E-2
5.436612806E1,3.378295898E-2,2.517547607E-1,2.472991943E-1
5.441612806E1,-7.751464844E-3,3.849182129E-1,2.497406006E-1
5.446612806E1,3.245544434E-1,-5.564270020E-1,2.973937988E-1
5.451612806E1,1.284790039E-1,-6.584320068E-1,2.616882324E-2
5.456612806E1,-1.372375488E-1,-4.311981201E-1,-2.798767090E-1
5.461612806E1,-1.152496338E-1,-2.809143066E-1,-3.696746826E-1
5.466612806E1,-3.748779297E-1,1.112518311E-1,-2.853698730E-1
5.471612806E1,-8.024902344E-1,-3.407897949E-1,-8.272094727E-1
5.476612806E1,4.186248779E-1,9.518127441E-1,2.711181641E-1
5.481612806E1,-1.641235352E-1,2.450256348E-1,3.725280762E-1
5.486612806E1,2.066650391E-1,-7.390747070E-1,2.033081055E-1
5.491612806E1,2.584838867E-2,3.281097412E-1,1.202392578E-1
5.496612806E1,1.816101074E-1,-1.251373291E-1,2.063751221E-1
5.501612806E1,2.249908447E-1,-3.126831055E-1,-3.308105469E-2
5.506612806E1,-4.255676270E-2,4.038543701E-1,6.770324707E-2
5.511612806E1,1.932220459E-1,5.138092041E-1,2.998352051E-1
5.516612806E1,-4.622344971E-1,5.327453613E-1,2.479095459E-1
5.521612806E1,1.767272949E-1,-8.056640625E-1,-1.393737793E-1
5.526612806E1,-1.561889648E-1,2.266998291E-1,2.729492188E-1
5.531612806E1,6.311035156E-2,-1.831817627E-1,2.784423828E-1
5.536612806E1,-2.851867676E-2,-1.306457520E-1,1.837615967E-1
5.541612806E1,3.526611328E-1,-1.135406494E-1,1.184082031E-1
5.546612806E1,3.153991699E-1,-2.027282715E-1,-1.302032471E-1
5.551612806E1,4.833831787E-1,-7.505798340E-2,3.654479980E-2
5.556612806E1,1.663513184E-1,1.436157227E-1,-2.505493164E-1
5.561612806E1,2.970733643E-1,2.169342041E-1,-1.109313965E-2
5.566612806E1,-7.676696777E-1,-3.169708252E-1,-5.749206543E-1
5.571612806E1,2.017669678E-1,2.987976074E-1,3.532409668E-2
5.576612806E1,-7.194061279E-1,1.057434082E-1,1.190185547E-1
5.581612806E1,1.193084717E-1,-3.676605225E-1,-5.506896973E-2
5.586612806E1,6.738281250E-2,6.610260010E-1,1.709442139E-1
5.591612806E1,2.738494873E-1,-1.672973633E-1,1.892700195E-1
5.596612806E1,5.053710938E-1,-2.051696777E-1,1.721649170E-1
5.601612806E1,9.364318848E-2,9.536743164E-2,6.648254395E-2
5.606612806E1,2.646942139E-1,3.855895996E-2,3.044128418E-2
5.611612806E1,-3.339538574E-1,6.115570068E-1,2.027130127E-1
5.616612806E1,-4.272460938E-4,-8.691864014E-1,1.080169678E-1
5.621612806E1,-2.068939209E-1,2.322082520E-1,1.941528320E-1
5.626612806E1,-4.200897217E-1,1.167449951E-1,2.362976074E-1
5.631612806E1,1.577911377E-1,-5.000305176E-2,3.169403076E-1
5.636612806E1,8.998107910E-2,1.246948242E-1,1.501770020E-1
5.641612806E1,1.449584961E-1,-2.100524902E-1,9.091186523E-2
5.646612806E1,2.457580566E-1,-1.630249023E-1,-1.796875000E-1
5.651612806E1,-9.082031250E-2,-4.183654785E-1,-3.091888428E-1
5.656612806E1,1.119689941E-1,-3.585815430E-3,-1.705322266E-1
5.661612806E1,-3.027954102E-1,-1.885986328E-2,-3.629608154E-1
5.666612806E1,-2.111663818E-1,-2.595367432E-1,-5.113983154E-1
5.671612806E1,-2.459869385E-1,2.468566895E-1,9.701538086E-2
5.676612806E1,-5.172729492E-2,-9.094238281E-2,-1.900787354E-1
5.681612806E1,1.974945068E-1,5.535125732E-1,4.180908203E-3
5.686612806E1,6.912231445E-3,-1.850128174E-1,1.000823975E-1
5.691612806E1,4.076385498E-1,-4.470825195E-1,-3.674316406E-2
5.696612806E1,1.095275879E-1,3.684234619E-1,-3.796386719E-2
5.701612806E1,2.366027832E-1,-1.929473877E-1,-1.161651611E-1
5.706612806E1,3.092803955E-1,6.671447754E-1,1.823425293E-2
5.711612806E1,-2.111663818E-1,-5.252685547E-1,-2.352752686E-1
5.716612806E1,5.271911621E-2,9.353637695E-2,-5.079650879E-2
5.721612806E1,-4.946136475E-1,-2.766418457E-1,1.037445068E-1
5.726612806E1,-1.012115479E-1,-4.328918457E-2,2.039337158E-1
5.731612806E1,-3.218078613E-2,2.890167236E-1,2.112579346E-1
5.736612806E1,2.268218994E-1,-1.960144043E-1,2.448577881E-1
5.741612806E1,7.472229004E-2,-1.373596191E-1,-1.833496094E-1
5.746612806E1,-6.578063965E-2,-3.682708740E-1,-9.661865234E-2
5.751612806E1,1.351928711E-1,4.166870117E-1,-1.656341553E-1
5.756612806E1,-2.117767334E-1,2.877960205E-1,-3.186035156E-2
5.761612806E1,-4.848327637E-1,-7.665557861E-1,-6.970977783E-1
5.766612806E1,1.179504395E-2,3.384857178E-1,1.746063232E-1
5.771612806E1,-2.655334473E-1,-3.596496582E-2,-3.247070312E-2
5.776612806E1,1.728820801E-2,3.995819092E-1,-1.076049805E-1
5.781612806E1,3.378295898E-2,-1.336975098E-1,1.440582275E-1
5.786612806E1,2.176513672E-1,-3.725585938E-1,1.807098389E-1
5.791612806E1,9.548950195E-2,-2.130126953E-2,1.884460449E-2
5.796612806E1,1.229705811E-1,-6.893920898E-2,1.764373779E-1
5.801612806E1,3.074645996E-1,8.748321533E-1,2.014923096E-1
5.806612806E1,-4.298553467E-1,-7.372283936E-1,4.020690918E-2
5.811612806E1,7.460632324E-1,2.694702148E-1,-1.381530762E-1
5.816612806E1,-4.665069580E-1,7.147979736E-1,6.097412109E-2
5.821612806E1,1.199188232E-1,-3.945465088E-1,4.501037598E-1
5.826612806E1,-4.272460938E-4,2.450256348E-1,4.714965820E-1
5.831612806E1,2.103271484E-1,-4.910583496E-1,4.317779541E-1
5.836612806E1,2.133789062E-1,-3.798828125E-1,3.248748779E-1
5.841612806E1,-7.751464844E-3,6.971740723E-2,-7.707214355E-2
5.846612806E1,-3.706359863E-2,-4.812927246E-1,-1.546478271E-1
5.851612806E1,-2.081146240E-1,1.094207764E-1,-3.855438232E-1
5.856612806E1,-8.367004395E-1,-1.007080078E-1,-5.077362061E-1
5.861612806E1,8.265686035E-2,-4.189758301E-1,-2.652130127E-1
5.866612806E1,-3.462219238E-2,7.184600830E-1,3.432006836E-1
5.871612806E1,-2.844696045E-1,3.305053711E-2,-2.941894531E-2
5.876612806E1,1.089324951E-1,-1.294250488E-1,-2.096252441E-1
5.881612806E1,-2.911834717E-1,-1.288146973E-1,-5.690002441E-2
5.886612806E1,3.306732178E-1,-6.138458252E-1,9.764099121E-2
5.891612806E1,1.034240723E-1,2.077636719E-1,-1.827392578E-1
5.896612806E1,8.815002441E-2,2.517547607E-1,1.385650635E-1
5.901612806E1,2.494201660E-1,9.646301270E-1,1.232910156E-1
5.906612806E1,-4.200897217E-1,-6.547698975E-1,-4.347229004E-2
5.911612806E1,1.150360107E-1,1.668395996E-1,1.159667969E-1
5.916612806E1,-4.732208252E-1,-2.754211426E-1,2.002563477E-1
5.921612806E1,1.388549805E-1,-1.727905273E-1,3.004455566E-1
5.926612806E1,-8.776855469E-2,3.409423828E-1,2.540130615E-1
5.931612806E1,2.488098145E-1,-2.424316406E-1,2.405700684E-1
5.936612806E1,-9.938049316E-2,-4.880065918E-1,-1.363220215E-1
5.941612806E1,2.401733398E-2,-4.208068848E-1,-2.248992920E-1
5.946612806E1,-5.111694336E-2,-7.810974121E-2,-2.432250977E-1
5.951612806E1,-9.082031250E-2,4.062957764E-1,-2.389526367E-1
5.956612806E1,-8.275299072E-1,-5.130462646E-1,-5.199432373E-1
5.961612806E1,7.069549561E-1,7.331237793E-1,3.700866699E-1
5.966612806E1,-2.239990234E-1,-1.457214355E-2,2.735595703E-1
5.971612806E1,4.931640625E-1,1.986083984E-1,-2.511596680E-1
5.976612806E1,1.179504395E-2,6.793518066E-1,-1.576995850E-1
5.981612806E1,1.455841064E-1,-3.921051025E-1,2.418060303E-1
5.986612806E1,1.779479980E-1,-2.088317871E-1,-1.231384277E-2
5.991612806E1,-9.387207031E-2,1.808929443E-1,8.297729492E-2
5.996612806E1,2.170410156E-1,2.126617432E-1,1.128997803E-1
6.001612806E1,6.188964844E-2,1.015945435E0,1.055755615E-1
6.006612806E1,-2.789306641E-2,-6.902008057E-1,-8.683776855E-2
6.011612806E1,1.455841064E-1,2.108154297E-1,-1.414489746E-2
6.016612806E1,-3.205108643E-1,-3.921051025E-1,9.274291992E-2
6.021612806E1,2.890014648E-2,-2.943572998E-1,2.326354980E-1
6.026612806E1,-1.183166504E-1,3.678131104E-1,1.013031006E-1
6.031612806E1,2.292633057E-1,-4.220275879E-1,1.336669922E-1
6.036612806E1,-2.868652344E-3,-1.141510010E-1,-2.310028076E-1
6.041612806E1,2.462768555E-2,-3.132934570E-1,-1.631927490E-1
6.046612806E1,-9.265136719E-2,-5.245971680E-2,-1.735839844E-1
6.051612806E1,-4.634552002E-1,9.780883789E-2,-7.766723633E-2
6.056612806E1,-3.773193359E-1,-5.387115479E-1,-2.829284668E-1
6.061612806E1,3.257904053E-1,9.133300781E-1,5.411224365E-1
6.066612806E1,-4.274139404E-1,7.643127441E-2,1.214599609E-1
6.071612806E1,3.050079346E-1,-3.841552734E-1,-1.925201416E-1
6.076612806E1,-9.509277344E-2,4.881591797E-1,1.257324219E-1
6.081612806E1,1.394653320E-1,-2.644348145E-1,2.772216797E-1
6.086612806E1,3.221130371E-1,-3.236846924E-1,1.104583740E-1
6.091612806E1,2.217102051E-2,2.877960205E-1,-1.414489746E-2
6.096612806E1,2.121582031E-1,1.912689209E-1,1.318511963E-1
6.101612806E1,-1.739044189E-1,8.253631592E-1,2.014923096E-1
6.106612806E1,2.830200195E-1,-1.152023315E0,7.807922363E-2
6.111612806E1,-6.761169434E-2,2.969512939E-1,2.662353516E-1
6.116612806E1,-3.339538574E-1,-6.637573242E-3,2.247009277E-1
6.121612806E1,1.186981201E-1,-7.444763184E-2,2.039337158E-1
6.126612806E1,1.254119873E-1,2.633514404E-1,5.792236328E-2
6.131612806E1,2.023925781E-1,-2.295989990E-1,6.343078613E-2
6.136612806E1,-1.103668213E-1,-2.106628418E-1,-1.851959229E-1
6.141612806E1,7.287597656E-2,-1.446990967E-1,-2.426147461E-1
6.146612806E1,3.561401367E-2,5.327453613E-1,-3.440093994E-1
6.151612806E1,-1.787872314E-1,2.902374268E-1,-3.892211914E-1
6.156612806E1,6.555175781E-2,-7.457885742E-1,-3.928833008E-1
6.161612806E1,-4.074096680E-2,5.345764160E-1,-5.628967285E-2
6.166612806E1,-4.194641113E-1,-2.253265381E-1,-1.338806152E-1
6.171612806E1,3.441009521E-1,-2.374267578E-2,-1.063842773E-1
6.176612806E1,-1.207580566E-1,1.436157227E-1,6.622314453E-3
6.181612806E1,5.298156738E-1,-4.873962402E-1,7.624816895E-2
6.186612806E1,1.789855957E-2,3.409423828E-1,-1.045532227E-1
6.191612806E1,2.396392822E-1,-1.764526367E-1,-4.103088379E-2
6.196612806E1,3.887023926E-1,7.612152100E-1,-1.552581787E-1
6.201612806E1,-5.062103271E-1,-2.057800293E-1,-7.463073730E-2
6.206612806E1,2.011718750E-1,-3.474426270E-2,2.625732422E-1
6.211612806E1,-3.913726807E-1,-5.368041992E-2,2.332458496E-1
6.216612806E1,6.301879883E-3,-2.497711182E-1,1.391754150E-1
6.221612806E1,1.730651855E-1,2.126617432E-1,5.792236328E-2
6.226612806E1,8.448791504E-2,2.023315430E-2,1.275634766E-1
6.231612806E1,1.077117920E-1,-4.421997070E-1,5.181884766E-2
6.236612806E1,-4.011535645E-2,-4.776153564E-1,-2.194061279E-1
6.241612806E1,-1.525268555E-1,-5.062866211E-2,-2.077941895E-1
6.246612806E1,-2.789306641E-2,4.582214355E-1,-1.247100830E-1
6.251612806E1,-6.650390625E-1,-5.417633057E-1,-4.985656738E-1
6.256612806E1,3.929748535E-1,5.590209961E-1,1.391754150E-1
6.261612806E1,-4.805603027E-1,3.311614990E-1,1.701354980E-2
6.266612806E1,1.901702881E-1,-2.931365967E-1,-7.707214355E-2
6.271612806E1,-2.911834717E-1,3.653717041E-1,3.715515137E-2
6.276612806E1,4.783630371E-2,-2.619781494E-1,4.336090088E-1
6.281612806E1,2.451477051E-1,-3.167724609E-2,5.670166016E-2
6.286612806E1,-3.767395020E-2,2.322082520E-1,5.120849609E-2
6.291612806E1,2.756958008E-1,1.479034424E-1,1.501770020E-1
6.296612806E1,-1.739044189E-1,9.683074951E-1,3.096160889E-1
6.301612806E1,1.449584961E-1,-6.956939697E-1,2.188110352E-2
6.306612806E1,-4.989624023E-2,-2.191162109E-2,1.660614014E-1
6.311612806E1,-3.889312744E-1,5.137634277E-2,-4.652404785E-2
6.316612806E1,-4.133605957E-2,-3.901672363E-2,-3.063964844E-2
6.321612806E1,1.260375977E-1,4.039001465E-2,4.180908203E-3
6.326612806E1,2.121582031E-1,-3.206329346E-1,7.992553711E-2
6.331612806E1,9.120178223E-2,-3.841552734E-1,-2.914886475E-1
6.336612806E1,1.403808594E-3,1.907348633E-3,-2.236785889E-1
6.341612806E1,-4.133605957E-2,1.014709473E-1,-2.322235107E-1
6.346612806E1,-3.186798096E-1,-3.279571533E-1,-1.351013184E-1
6.351612806E1,-1.977233887E-1,-7.505798340E-2,-3.513488770E-1
6.356612806E1,-2.832489014E-1,2.083740234E-1,3.102111816E-1
6.361612806E1,5.393981934E-2,-7.500762939E-1,-2.453613281E-2
6.366612806E1,1.541290283E-1,1.048324585E0,-3.674316406E-2
6.371612806E1,-4.196166992E-2,6.097106934E-1,1.519927979E-1
6.376612806E1,5.023193359E-1,-5.771942139E-1,1.153411865E-1
6.381612806E1,1.423645020E-2,1.039276123E-1,9.063720703E-3
6.386612806E1,9.852600098E-2,2.358703613E-1,-4.713439941E-2
6.391612806E1,1.913909912E-1,9.811248779E-1,1.410064697E-1
6.396612806E1,-7.316284180E-1,-1.813507080E-1,1.123046875E-1
6.401612806E1,7.509460449E-1,-2.729797363E-1,-1.137237549E-1
6.406612806E1,-4.475708008E-1,-1.349182129E-1,-5.445861816E-2
6.411612806E1,-8.166503906E-2,-4.922790527E-1,3.532409668E-2
6.416612806E1,-1.818389893E-1,-1.172027588E-1,5.242919922E-2
6.421612806E1,8.692932129E-2,-2.222747803E-1,1.733856201E-1
6.426612806E1,-7.859802246E-2,-4.328918457E-2,5.426025391E-2
6.431612806E1,2.095031738E-2,3.001403809E-2,-6.546020508E-2
6.436612806E1,2.217102051E-2,-1.257629395E-1,-1.296081543E-1
6.441612806E1,3.317260742E-2,9.402008057E-1,1.516723633E-2
6.446612806E1,-6.357269287E-1,-5.405426025E-1,-3.403472900E-1
6.451612806E1,4.583435059E-1,-4.782257080E-1,1.294097900E-1
6.456612806E1,-3.553314209E-1,6.359863281E-1,5.869445801E-1
6.461612806E1,-9.448242188E-2,-1.923370361E-1,5.303955078E-2
6.466612806E1,1.272583008E-1,7.215881348E-2,-5.384826660E-2
6.471612806E1,6.677246094E-2,-1.727905273E-1,1.623840332E-1
6.476612806E1,3.813781738E-1,-4.861755371E-1,1.544342041E-1
6.481612806E1,1.602325439E-1,3.855895996E-2,8.969116211E-2
6.486612806E1,3.117370605E-1,-2.191162109E-2,3.150939941E-1
6.491612806E1,2.005462646E-1,9.957885742E-1,-1.414489746E-2
6.496612806E1,-1.207580566E-1,-6.394958496E-1,-1.546478271E-1
6.501612806E1,-7.066345215E-2,3.635406494E-1,-8.010864258E-2
6.506612806E1,-4.487915039E-1,-4.055328369E-1,-3.491210938E-2
6.511612806E1,4.173278809E-2,2.621307373E-1,1.257324219E-1
6.516612806E1,-2.607727051E-2,1.479034424E-1,1.110687256E-1
6.521612806E1,1.706237793E-1,-3.817138672E-1,3.034973145E-1
6.526612806E1,-1.916198730E-1,-2.509918213E-1,-7.156372070E-2
6.531612806E1,-3.706359863E-2,-3.468933105E-1,-2.267303467E-1
6.536612806E1,-4.562377930E-2,2.028808594E-1,-2.841491699E-1
6.541612806E1,-2.575836182E-1,-8.055114746E-2,-2.798767090E-1
6.546612806E1,3.500366211E-2,-1.092529297E-1,-6.360168457E-1
6.551612806E1,2.329254150E-1,5.962829590E-1,4.205322266E-2
6.556612806E1,-5.911254883E-1,-6.486663818E-1,-2.646026611E-1
6.561612806E1,2.304840088E-1,7.629394531E-5,-2.578735352E-1
6.566612806E1,-2.582092285E-1,6.390380859E-1,6.953430176E-2
6.571612806E1,4.522399902E-1,-6.828765869E-1,1.941528320E-1
6.576612806E1,1.565704346E-1,-3.901672363E-2,1.098480225E-1
6.581612806E1,2.280426025E-1,8.070373535E-2,-2.941894531E-2
6.586612806E1,2.579650879E-1,7.013549805E-1,1.091003418E-2
6.591612806E1,-3.803710938E-1,-7.311248779E-1,7.319641113E-2
6.596612806E1,2.005462646E-1,4.857177734E-1,-8.561706543E-2
6.601612806E1,-7.939453125E-1,-3.255157471E-1,-8.561706543E-2
6.606612806E1,-6.272888184E-2,-7.139587402E-2,3.041076660E-1
6.611612806E1,-1.378631592E-1,5.956726074E-1,2.802886963E-1
6.616612806E1,1.193084717E-1,-4.483032227E-1,2.485198975E-1
6.621612806E1,2.481994629E-1,-3.585052490E-1,2.006530762E-2
6.626612806E1,2.011718750E-1,-8.116149902E-2,-2.090148926E-1
6.631612806E1,3.483886719E-1,-1.611938477E-1,-2.908630371E-1
6.636612806E1,2.512512207E-1,7.490081787E-1,-4.050903320E-1
6.641612806E1,-6.900787354E-1,-5.087738037E-1,-7.752838135E-1
6.646612806E1,4.497985840E-1,2.242584229E-1,-1.809082031E-1
6.651612806E1,-3.279113770E-2,6.799774170E-1,3.596954346E-1
6.656612806E1,1.667785645E-2,-1.477508545E-1,8.480834961E-2
6.661612806E1,-5.172729492E-2,9.048461914E-2,3.288269043E-2
6.666612806E1,-1.488647461E-1,-2.748107910E-1,2.228698730E-1
6.671612806E1,2.262115479E-1,-5.063323975E-1,1.807098389E-1
6.676612806E1,3.317260742E-2,1.753845215E-1,9.457397461E-2
6.681612806E1,2.091064453E-1,1.198120117E-1,1.245117188E-1
6.686612806E1,1.547393799E-1,8.174133301E-1,1.739959717E-1
6.691612806E1,-3.431091309E-1,-7.891693115E-1,4.449462891E-2
6.696612806E1,2.549285889E-1,4.161071777E-2,1.440582275E-1
6.701612806E1,-5.355377197E-1,4.252471924E-1,1.672821045E-1
6.706612806E1,-1.439666748E-1,-2.051696777E-1,4.018554688E-1
6.711612806E1,-2.227630615E-1,1.228332520E-2,4.036865234E-1
6.716612806E1,1.920013428E-1,-2.992401123E-1,2.992248535E-1
6.721612806E1,1.596221924E-1,-1.367645264E-1,-2.880859375E-2
6.726612806E1,6.738281250E-2,-1.514129639E-1,-3.482971191E-1
6.731612806E1,1.406860352E-1,-1.184387207E-1,-2.707214355E-1
6.736612806E1,-4.878845215E-1,-2.008972168E-1,-4.099884033E-1
6.741612806E1,-2.307128906E-1,-7.445678711E-1,-3.611145020E-1
6.746612806E1,5.053710938E-1,1.037933350E0,5.399017334E-1
6.751612806E1,-3.986968994E-1,4.771423340E-2,-7.019042969E-4
6.756612806E1,3.636474609E-1,-4.617462158E-1,-4.906311035E-1
6.761612806E1,-1.928405762E-1,8.168029785E-1,-7.019042969E-4
6.766612806E1,2.494201660E-1,-2.534332275E-1,1.471099854E-1
6.771612806E1,3.845214844E-3,-1.666870117E-1,8.175659180E-2
6.776612806E1,-4.074096680E-2,4.039001465E-2,1.098480225E-1
6.781612806E1,2.885131836E-1,9.805145264E-1,3.004455566E-1
6.786612806E1,-4.402313232E-1,-1.244873047E0,-7.951354980E-2
6.791612806E1,3.630523682E-1,1.332397461E-1,-4.347229004E-2
6.796612806E1,-6.931457520E-1,3.073425293E-1,-1.100616455E-1
6.801612806E1,-5.722045898E-2,-5.564270020E-1,2.179718018E-1
6.806612806E1,-1.506805420E-1,5.480194092E-1,1.385650635E-1
6.811612806E1,2.323150635E-1,-7.810974121E-2,3.150939941E-1
6.816612806E1,1.657257080E-1,-4.079895020E-1,-1.658630371E-2
6.821612806E1,1.362609863E-2,-1.978454590E-1,-2.438354492E-1
6.826612806E1,-2.081146240E-1,-2.729797363E-1,-2.279510498E-1
6.831612806E1,7.409667969E-2,3.159027100E-1,2.310180664E-2
6.836612806E1,-5.019378662E-1,-1.428680420E-1,-3.220214844E-1
6.841612806E1,2.616424561E-1,5.547332764E-1,1.823425293E-2
6.846612806E1,-4.060363770E-1,-3.084106445E-1,1.972045898E-1
6.851612806E1,5.224761963E-1,-1.581268311E-1,-1.289825439E-1
6.856612806E1,2.217102051E-2,6.909637451E-1,-1.137237549E-1
6.861612806E1,6.738281250E-2,-2.644348145E-1,-4.469299316E-2
6.866612806E1,2.475891113E-1,-5.362548828E-1,-1.841735840E-2
6.871612806E1,-2.973937988E-2,1.460723877E-1,-1.247100830E-1
6.876612806E1,2.347564697E-1,4.649353027E-2,3.044128418E-2
6.881612806E1,4.235229492E-1,1.186996460E0,1.636199951E-1
6.886612806E1,-2.612457275E-1,-7.561798096E-1,2.472991943E-1
6.891612806E1,1.522979736E-1,-5.582580566E-1,2.143096924E-1
6.896612806E1,-7.243041992E-1,1.210327148E-1,-1.841735840E-2
6.901612806E1,-2.119445801E-2,4.588317871E-2,1.092376709E-1
6.906612806E1,6.301879883E-3,4.734954834E-1,1.385650635E-1
6.911612806E1,1.681823730E-1,-3.829345703E-1,3.776550293E-2
6.916612806E1,1.144104004E-1,-3.206329346E-1,-2.819824219E-2
6.921612806E1,1.972961426E-2,-2.295989990E-1,-3.580627441E-1
6.926612806E1,7.838439941E-2,-2.137298584E-1,-3.000335693E-1
6.931612806E1,-3.479003906E-3,7.856597900E-1,-6.729125977E-2
6.936612806E1,-5.801239014E-1,-2.974243164E-1,-5.382690430E-1
6.941612806E1,1.241912842E-1,-3.474426270E-2,-4.408264160E-2
6.946612806E1,-5.202636719E-1,1.503448486E-1,-3.002929688E-2
6.951612806E1,1.730651855E-1,2.206420898E-2,-1.167602539E-1
6.956612806E1,-7.127380371E-2,4.991455078E-1,-1.809082031E-1
6.961612806E1,1.712341309E-1,-2.882537842E-1,1.025238037E-1
6.966612806E1,2.481994629E-1,-5.283203125E-1,-5.934143066E-2
6.971612806E1,6.616210938E-2,1.570587158E-1,6.221008301E-2
6.976612806E1,4.320678711E-1,2.291412354E-1,1.251220703E-1
6.981612806E1,1.993255615E-1,1.163787842E0,1.513977051E-1
6.986612806E1,5.332946777E-2,-8.410949707E-1,5.915832520E-2
6.991612806E1,-6.150817871E-2,1.594543457E-2,1.092376709E-1
6.996612806E1,-3.492126465E-1,-4.206848145E-2,9.947204590E-2
7.001612806E1,6.982421875E-2,-6.222534180E-2,5.426025391E-2
7.006612806E1,-5.355834961E-2,2.487030029E-1,4.180908203E-3
7.011612806E1,2.817993164E-1,-3.890380859E-1,7.807922363E-2
7.016612806E1,-8.166503906E-2,-8.970642090E-2,-2.004547119E-1
7.021612806E1,-1.448059082E-2,-2.882537842E-1,-1.283874512E-1
7.026612806E1,6.127929688E-2,1.423950195E-1,-2.713165283E-1
7.031612806E1,-4.298553467E-1,3.702545166E-1,-1.308288574E-1
7.036612806E1,-1.164703369E-1,-5.839080811E-1,-3.403472900E-1
7.041612806E1,-3.889465332E-2,5.510711670E-1,2.668457031E-1
7.046612806E1,-2.563629150E-1,-1.831817627E-1,-4.469299316E-2
7.051612806E1,3.312835693E-1,1.657104492E-2,-1.338806152E-1
7.056612806E1,1.972961426E-2,2.254791260E-1,-8.744812012E-2
7.061612806E1,5.499725342E-1,-4.617462158E-1,7.685852051E-2
7.066612806E1,1.981048584E-1,2.065429688E-1,-2.880859375E-2
7.071612806E1,3.178405762E-1,1.937103271E-1,1.972045898E-1
7.076612806E1,3.605957031E-1,6.671447754E-1,1.324462891E-1
7.081612806E1,-4.170227051E-1,-1.087265015E0,-1.967926025E-1
7.086612806E1,7.960510254E-2,7.074584961E-1,-4.713439941E-2
7.091612806E1,-4.139709473E-1,-3.829345703E-1,1.739959717E-1
7.096612806E1,-1.109771729E-1,-1.398010254E-1,2.460784912E-1
7.101612806E1,-1.427459717E-1,3.311614990E-1,1.080169678E-1
7.106612806E1,1.718444824E-1,-3.132934570E-1,2.088165283E-1
7.111612806E1,-8.349609375E-2,-3.303985596E-1,8.663940430E-2
7.116612806E1,-5.050659180E-2,-4.446411133E-1,-1.583099365E-1
7.121612806E1,-1.814270020E-2,-4.328918457E-2,-5.384826660E-2
7.126612806E1,6.127929688E-2,6.488189697E-1,3.105163574E-2
7.131612806E1,-6.784820557E-1,-7.799987793E-1,-7.826232910E-1
7.136612806E1,1.687927246E-1,7.215881348E-2,-1.125030518E-1
7.141612806E1,-3.504333496E-1,1.252899170E-1,-6.362915039E-2
7.146612806E1,1.382446289E-1,-5.325927734E-1,-9.783935547E-2
7.151612806E1,-3.218078613E-2,1.827239990E-1,-1.597595215E-2
7.156612806E1,2.879180908E-1,-7.872009277E-2,8.663940430E-2
7.161612806E1,2.371978760E-1,2.163238525E-1,6.221008301E-2
7.166612806E1,2.182769775E-1,1.265106201E-1,1.019134521E-1
7.171612806E1,2.830200195E-1,2.670288086E-1,7.441711426E-2
7.176612806E1,-4.127502441E-1,2.694702148E-2,1.006927490E-1
7.181612806E1,5.127105713E-1,4.649353027E-2,1.196289062E-1
7.186612806E1,-4.054260254E-1,1.907348633E-3,3.682556152E-1
7.191612806E1,-1.787872314E-1,-6.785888672E-1,1.538391113E-1
7.196612806E1,-1.354217529E-1,7.227325439E-1,1.825408936E-1
7.201612806E1,7.653808594E-2,1.387329102E-1,1.642150879E-1
7.206612806E1,1.345825195E-1,-2.760314941E-1,1.416168213E-1
7.211612806E1,-2.119445801E-2,-7.933044434E-2,-1.729736328E-1
7.216612806E1,1.667785645E-2,-1.886749268E-1,-8.317565918E-2
7.221612806E1,9.671020508E-2,5.242004395E-1,-3.244628906E-1
7.226612806E1,-2.331542969E-1,-6.222534180E-2,-3.910522461E-1
7.231612806E1,6.616210938E-2,-7.897796631E-1,-5.486602783E-1
7.236612806E1,5.639648438E-2,2.749633789E-1,5.120849609E-2
7.241612806E1,-4.952239990E-1,-4.629669189E-1,-3.794403076E-1
7.246612806E1,2.237701416E-1,4.956054688E-2,-1.723632812E-1
7.251612806E1,-2.239990234E-1,2.395324707E-1,4.510498047E-2
7.256612806E1,3.941955566E-1,-3.145141602E-1,2.509613037E-1
7.261612806E1,1.290740967E-1,4.637145996E-1,1.575012207E-1
7.266612806E1,2.677459717E-1,-6.893920898E-2,3.654479980E-2
7.271612806E1,2.830200195E-1,8.803405762E-1,5.120849609E-2
7.276612806E1,-7.817230225E-1,-1.250366211E0,-1.644134521E-1
7.281612806E1,3.752593994E-1,1.246948242E-1,2.240905762E-1
7.286612806E1,-7.798767090E-1,-1.178131104E-1,1.660614014E-1
7.291612806E1,1.840667725E-1,-1.031494141E-1,2.821197510E-1
7.296612806E1,2.584838867E-2,6.720275879E-1,3.114318848E-1
7.301612806E1,2.127685547E-1,-2.332763672E-1,2.827301025E-1
7.306612806E1,2.145996094E-1,-5.631408691E-1,4.142761230E-2
7.311612806E1,9.671020508E-2,-6.649780273E-2,-2.859802246E-1
7.316612806E1,1.669616699E-1,1.350708008E-1,-2.468872070E-1
7.321612806E1,1.724548340E-1,1.133850098E0,-2.023010254E-1
7.326612806E1,-6.998596191E-1,-5.527648926E-1,-6.048583984E-1
7.331612806E1,1.235809326E-1,-1.819610596E-1,-1.222686768E-1
7.336612806E1,-5.752410889E-1,1.228332520E-2,1.397857666E-1
7.341612806E1,2.048339844E-1,4.166870117E-1,1.562805176E-1
7.346612806E1,8.132934570E-3,4.490509033E-1,1.013031006E-1
7.351612806E1,1.974945068E-1,-4.574584961E-1,1.031341553E-1
7.356612806E1,1.333618164E-1,-4.512023926E-2,6.097412109E-2
7.361612806E1,2.072753906E-1,6.787109375E-2,1.516723633E-2
7.366612806E1,4.161834717E-1,1.912689209E-1,3.532409668E-2
7.371612806E1,-6.028747559E-2,6.915740967E-1,-4.408264160E-2
7.376612806E1,4.809417725E-1,-3.132934570E-1,-4.784088135E-1
7.381612806E1,-2.801971436E-1,7.044067383E-1,-1.076049805E-1
7.386612806E1,-1.586303711E-1,-2.674713135E-1,-1.658630371E-2
7.391612806E1,-1.152496338E-1,4.606781006E-1,2.179718018E-1
7.396612806E1,6.301879883E-3,8.865356445E-2,9.457397461E-2
7.401612806E1,1.895599365E-1,-4.238739014E-1,2.082061768E-1
7.406612806E1,-4.928588867E-2,-2.094421387E-1,-1.320495605E-1
7.411612806E1,-8.361816406E-3,-6.034545898E-1,-1.475524902E-2
7.416612806E1,1.431427002E-1,3.568115234E-1,-4.164123535E-2
7.421612806E1,-3.363952637E-1,6.054687500E-2,-1.955718994E-1
7.426612806E1,-3.235626221E-1,-7.494506836E-1,-8.223266602E-1
7.431612806E1,-9.692382812E-2,1.207153320E0,1.489562988E-1
7.436612806E1,-5.801239014E-1,9.902954102E-2,5.187988281E-4
7.441612806E1,2.005462646E-1,4.039001465E-2,2.861022949E-2
7.446612806E1,-1.360168457E-1,3.867492676E-1,7.136535645E-2
7.451612806E1,2.341461182E-1,-3.975982666E-1,1.410064697E-1
7.456612806E1,1.388549805E-1,6.971740723E-2,2.198028564E-1
7.461612806E1,1.376342773E-1,-1.532440186E-1,2.191925049E-1
7.466612806E1,3.300628662E-1,4.515075684E-1,2.289733887E-1
7.471612806E1,-7.102508545E-1,-1.010910034E0,1.884460449E-2
7.476612806E1,1.895599365E-1,-1.091003418E-2,1.752166748E-1
7.481612806E1,-5.960083008E-1,-2.210540771E-1,2.931060791E-1
7.486612806E1,4.234313965E-2,-1.312561035E-1,2.937316895E-1
7.491612806E1,-2.789306641E-2,2.578582764E-1,1.935424805E-1
7.496612806E1,2.567443848E-1,-3.633880615E-1,1.953735352E-1
7.501612806E1,4.600524902E-2,-5.795288086E-2,-9.417724609E-2
7.506612806E1,4.295349121E-2,9.780883789E-2,5.181884766E-2
7.511612806E1,6.127929688E-2,-1.117095947E-1,-8.622741699E-2
7.516612806E1,-2.087249756E-1,7.380065918E-1,6.343078613E-2
7.521612806E1,-4.811706543E-1,-1.035964966E0,-3.525695801E-1
7.526612806E1,4.571228027E-1,4.692230225E-1,5.484619141E-1
7.531612806E1,-3.131866455E-1,5.260314941E-1,4.791259766E-3
7.536612806E1,4.638366699E-1,1.405792236E-1,-1.485290527E-1
7.541612806E1,9.304809570E-2,7.942047119E-1,-2.102355957E-1
7.546612806E1,-5.050659180E-2,-7.200622559E-2,1.581115723E-1
7.551612806E1,5.328674316E-1,-9.473876953E-1,-5.140686035E-2
7.556612806E1,1.791687012E-1,2.028808594E-1,-8.195495605E-2
7.561612806E1,2.109375000E-1,4.912109375E-1,1.213073730E-2
7.566612806E1,-3.693847656E-1,1.430206299E-1,-1.332702637E-1
7.571612806E1,3.844146729E-1,-3.707122803E-1,-1.515960693E-1
7.576612806E1,-4.604034424E-1,-1.144409180E-3,-1.658630371E-2
7.581612806E1,-1.787872314E-1,-4.177551270E-1,8.602905273E-2
7.586612806E1,-2.172698975E-1,-4.483032227E-1,1.837615967E-1
7.591612806E1,1.003723145E-1,8.636474609E-3,1.272583008E-2
7.596612806E1,4.051208496E-2,-2.002868652E-1,7.685852051E-2
7.601612806E1,9.364318848E-2,-3.352355957E-2,-1.766357422E-1
7.606612806E1,-4.440307617E-2,-4.055328369E-1,-2.016754150E-1
7.611612806E1,2.280426025E-1,1.986083984E-1,-2.841491699E-1
7.616612806E1,-1.268615723E-1,8.003082275E-1,-1.906890869E-1
7.621612806E1,-2.423248291E-1,-6.156768799E-1,-5.437622070E-1
7.626612806E1,-1.360168457E-1,4.563903809E-1,3.468627930E-1
7.631612806E1,-2.930145264E-1,5.205383301E-1,5.792236328E-2
7.636612806E1,1.730651855E-1,-3.444519043E-1,6.953430176E-2
7.641612806E1,-7.554626465E-2,-1.947937012E-1,5.853271484E-2
7.646612806E1,2.157592773E-2,-1.935577393E-1,2.124786377E-1
7.651612806E1,3.807525635E-1,1.466827393E-1,2.754058838E-1
7.656612806E1,1.101531982E-1,1.075897217E-1,2.332458496E-1
7.661612806E1,7.558288574E-1,7.606048584E-1,1.239013672E-1
7.666612806E1,-4.762878418E-1,7.582092285E-2,2.983093262E-2
7.671612806E1,2.958526611E-1,1.277313232E-1,1.648406982E-1
7.676612806E1,-5.483703613E-1,-2.155609131E-1,7.746887207E-2
7.681612806E1,-2.117767334E-1,-5.533599854E-1,-1.130981445E-1
7.686612806E1,4.112243652E-2,7.460021973E-2,4.510498047E-2
7.691612806E1,1.669616699E-1,9.109497070E-2,6.953430176E-2
7.696612806E1,2.645874023E-2,-2.283782959E-1,-1.475524902E-2
7.701612806E1,9.182739258E-2,-4.128723145E-1,-1.509857178E-1
7.706612806E1,-3.950500488E-2,-3.358917236E-1,-1.210479736E-1
7.711612806E1,7.472229004E-2,6.518707275E-1,-9.173583984E-2
7.716612806E1,-6.057891846E-1,-4.397430420E-1,-5.462036133E-1
7.721612806E1,2.145996094E-1,4.612731934E-1,2.729492188E-1
7.726612806E1,-2.514801025E-1,4.533386230E-1,1.800994873E-1
7.731612806E1,1.431427002E-1,-3.279571533E-1,5.303955078E-2
7.736612806E1,4.295349121E-2,1.204071045E-1,1.355133057E-1
7.741612806E1,2.017669678E-1,-1.257629395E-1,3.212127686E-1
7.746612806E1,3.428802490E-1,-3.023071289E-1,-6.912231445E-2
7.751612806E1,-5.050659180E-2,2.456359863E-1,6.622314453E-3
7.756612806E1,2.689666748E-1,1.535034180E-2,8.114624023E-2
7.761612806E1,9.060668945E-2,6.372070312E-1,2.979888916E-1
7.766612806E1,1.248168945E-1,-3.780517578E-1,-2.758789062E-2
7.771612806E1,-1.500854492E-1,4.478302002E-1,2.198028564E-1
7.776612806E1,-2.783508301E-1,-1.226959229E-1,3.071594238E-1
7.781612806E1,-1.080322266E-2,-9.689331055E-3,4.898223877E-1
7.786612806E1,2.157592773E-2,8.682250977E-2,3.132781982E-1
7.791612806E1,1.779479980E-1,-4.366912842E-1,4.684295654E-1
7.796612806E1,1.987152100E-1,-1.532440186E-1,1.758270264E-1
7.801612806E1,1.736755371E-1,-4.947204590E-1,1.629943848E-1
7.806612806E1,2.805786133E-1,-2.253265381E-1,-3.369140625E-2
7.811612806E1,1.260375977E-1,1.022048950E0,5.364990234E-2
7.816612806E1,-6.174011230E-1,-1.089721680E0,-2.823181152E-1
7.821612806E1,3.465576172E-1,7.667083740E-1,7.921905518E-1
7.826612806E1,-3.009643555E-1,8.216857910E-1,7.860870361E-1
7.831612806E1,-1.354217529E-1,-6.010131836E-1,6.162719727E-1
7.836612806E1,-1.317596436E-1,-2.039489746E-1,4.837036133E-1
7.841612806E1,-1.451873779E-1,2.315979004E-1,6.724700928E-1
7.846612806E1,3.581542969E-1,1.901245117E-2,7.433166504E-1
7.851612806E1,2.567443848E-1,3.904113770E-1,8.306732178E-1
7.856612806E1,4.949951172E-1,-2.735900879E-1,5.832824707E-1
7.861612806E1,-4.684448242E-2,2.126617432E-1,5.209655762E-1
7.866612806E1,5.157623291E-1,3.085632324E-1,5.148620605E-1
7.871612806E1,-5.312652588E-1,3.568115234E-1,5.502929688E-1
7.876612806E1,-2.435455322E-1,-4.922790527E-1,5.918273926E-1
7.881612806E1,-6.210327148E-2,8.387908936E-1,7.634887695E-1
7.886612806E1,-2.484283447E-1,1.314086914E-1,7.543182373E-1
7.891612806E1,2.982940674E-1,-1.035339355E0,9.033813477E-1
7.896612806E1,-1.067047119E-1,5.932617188E-2,4.397277832E-1
7.901612806E1,2.573699951E-1,7.154846191E-2,4.476623535E-1
7.906612806E1,2.127685547E-1,-1.824951172E-2,2.411956787E-1
7.911612806E1,4.387969971E-1,6.549224854E-1,3.047180176E-1
7.916612806E1,-9.814453125E-2,4.771423340E-2,-3.674316406E-2
7.921612806E1,-7.005310059E-2,4.875488281E-1,5.166931152E-1
7.926612806E1,-4.885101318E-1,-2.290039062E-1,7.909698486E-1
7.931612806E1,-1.751708984E-2,4.362335205E-1,7.121734619E-1
7.936612806E1,-1.457977295E-1,4.655609131E-1,7.610473633E-1
7.941612806E1,1.938323975E-1,-3.701019287E-1,8.447265625E-1
7.946612806E1,1.785583496E-1,-2.192230225E-1,4.415435791E-1
7.951612806E1,1.987152100E-1,5.382537842E-1,5.906066895E-1
7.956612806E1,2.860717773E-1,-1.184387207E-1,4.036865234E-1
7.961612806E1,6.629791260E-1,1.723342896E0,3.627471924E-1
7.966612806E1,-3.357849121E-1,-1.091003418E-2,3.939056396E-1
7.971612806E1,4.895019531E-1,-5.765838623E-1,4.464416504E-1
7.976612806E1,-6.748199463E-1,3.586578369E-1,2.680664062E-1
7.981612806E1,-2.282714844E-1,5.950622559E-1,4.055175781E-1
7.986612806E1,-4.365692139E-1,-4.892272949E-1,5.698394775E-1
7.991612806E1,5.332946777E-2,-2.852020264E-1,6.614685059E-1
7.996612806E1,-4.867553711E-2,2.706909180E-1,3.639678955E-1
8.001612806E1,1.541290283E-1,-2.365112305E-3,3.218231201E-1
8.006612806E1,-4.322967529E-1,-6.651611328E-1,1.703186035E-1
8.011612806E1,-2.539215088E-1,2.059326172E-1,2.124786377E-1
8.016612806E1,-4.274139404E-1,6.072692871E-1,1.128997803E-1
8.021612806E1,3.453369141E-1,7.184600830E-1,6.107635498E-1
8.026612806E1,-2.948608398E-1,-9.033203125E-2,2.082061768E-1
8.031612806E1,3.496093750E-1,-3.994293213E-1,1.642150879E-1
8.036612806E1,1.632843018E-1,2.340393066E-1,2.088165283E-1
8.041612806E1,3.031768799E-1,-1.117095947E-1,3.810729980E-1
8.046612806E1,4.387969971E-1,-1.457214355E-2,2.155303955E-1
8.051612806E1,6.433105469E-2,1.815032959E-1,1.923217773E-1
8.056612806E1,1.590118408E-1,-2.143402100E-1,2.143096924E-1
8.061612806E1,-1.439666748E-1,-1.984558105E-1,2.503509521E-1
8.066612806E1,3.288421631E-1,-9.338378906E-2,9.886169434E-2
8.071612806E1,-2.893524170E-1,7.001342773E-1,2.277526855E-1
8.076612806E1,-1.983337402E-1,-5.099945068E-1,3.034973145E-1
8.081612806E1,-9.265136719E-2,2.260894775E-1,3.865814209E-1
8.086612806E1,-1.451873779E-1,-5.062866211E-2,4.140625000E-1
8.091612806E1,3.850402832E-1,-5.240478516E-1,6.810150146E-1
8.096612806E1,1.850891113E-2,-5.978393555E-2,1.501770020E-1
8.101612806E1,2.897338867E-1,-3.352355957E-2,2.900543213E-1
8.106612806E1,1.240539551E-2,3.036804199E-1,-1.405944824E-1
8.111612806E1,5.230865479E-1,6.311035156E-1,-3.247070312E-2
8.116612806E1,-2.777557373E-1,1.613464355E-1,-5.431671143E-1
8.121612806E1,-1.360168457E-1,7.215881348E-2,-1.656341553E-1
8.126612806E1,-4.677276611E-1,-1.141510010E-1,8.358764648E-2
8.131612806E1,-1.085357666E-1,-1.489715576E-1,4.142761230E-2
8.136612806E1,6.372070312E-2,2.114257812E-1,6.526184082E-2
8.141612806E1,-1.995849609E-2,-2.827606201E-1,1.776580811E-1
8.146612806E1,2.219390869E-1,-3.719329834E-1,2.295837402E-1
8.151612806E1,9.364318848E-2,3.659820557E-1,2.894439697E-1
8.156612806E1,2.384185791E-1,1.326293945E-1,4.146728516E-1
8.161612806E1,9.548950195E-2,1.444778442E0,4.873809814E-1
8.166612806E1,8.815002441E-2,-7.427368164E-1,4.061279297E-1
8.171612806E1,-2.478179932E-1,-1.000976562E-1,5.179138184E-1
8.176612806E1,-2.783508301E-1,6.910705566E-2,4.142761230E-2
8.181612806E1,9.608459473E-2,6.848144531E-2,1.165618896E-1
8.186612806E1,-6.394958496E-2,-5.123901367E-2,1.446685791E-1
8.191612806E1,1.547393799E-1,-4.678497314E-1,2.240905762E-1
8.196612806E1,-5.294799805E-2,-1.043701172E-1,6.404113770E-2
8.201612806E1,8.937072754E-2,-2.557373047E-2,1.013031006E-1
8.206612806E1,-8.105468750E-2,-4.695129395E-2,-1.534271240E-1
8.211612806E1,-1.030426025E-1,2.132720947E-1,-7.217407227E-2
8.216612806E1,-1.427459717E-1,-1.275939941E-1,-2.902679443E-1
8.221612806E1,-1.653442383E-1,1.130828857E-1,2.680664062E-1
8.226612806E1,-3.205108643E-1,-2.717590332E-1,-1.125030518E-1
8.231612806E1,1.077117920E-1,1.265106201E-1,-1.125030518E-1
8.236612806E1,-5.233764648E-2,3.183441162E-1,3.898620605E-2
8.241612806E1,2.286529541E-1,-2.619781494E-1,6.282043457E-2
8.246612806E1,2.573699951E-1,2.358703613E-1,9.947204590E-2
8.251612806E1,2.194976807E-1,1.643981934E-1,1.825408936E-1
8.256612806E1,3.129577637E-1,2.114257812E-1,2.088165283E-1
8.261612806E1,-7.127380371E-2,9.340972900E-1,3.786315918E-1
8.266612806E1,1.877288818E-1,-5.723114014E-1,1.184082031E-1
8.271612806E1,-1.732940674E-1,1.204071045E-1,2.289733887E-1
8.276612806E1,-3.058471680E-1,-3.352813721E-1,7.075500488E-2
8.281612806E1,-9.204101562E-2,-7.749938965E-2,1.318511963E-1
8.286612806E1,1.118469238E-2,-7.444763184E-2,1.165618896E-1
8.291612806E1,2.402648926E-1,-4.183654785E-1,4.571533203E-2
8.296612806E1,-8.654785156E-2,-9.399414062E-2,-1.607513428E-1
8.301612806E1,1.626892090E-1,-9.277343750E-2,-3.079681396E-1
8.306612806E1,-1.152496338E-1,1.045227051E-1,-3.421783447E-1
8.311612806E1,-1.897888184E-1,3.060913086E-2,-3.623352051E-1
8.316612806E1,-2.698059082E-1,-9.460449219E-2,-6.030273438E-1
8.321612806E1,8.326721191E-2,1.961669922E-1,1.685028076E-1
8.326612806E1,-2.166595459E-1,-2.618408203E-2,-1.564788818E-1
8.331612806E1,-1.325988770E-2,1.961669922E-1,-2.419891357E-1
8.336612806E1,4.966735840E-2,1.442413330E-1,6.648254395E-2
8.341612806E1,7.838439941E-2,-1.593475342E-1,2.271423340E-1
8.346612806E1,2.457580566E-1,5.322265625E-2,3.444213867E-1
8.351612806E1,8.326721191E-2,-7.858276367E-3,1.123046875E-1
8.356612806E1,3.801574707E-1,4.826660156E-1,2.326354980E-1
8.361612806E1,-5.294799805E-2,1.635986328E0,3.438110352E-1
8.366612806E1,2.830200195E-1,-8.447570801E-1,7.624816895E-2
8.371612806E1,-2.117767334E-1,-3.798828125E-1,-1.173858643E-1
8.376612806E1,-1.818389893E-1,1.882171631E-1,-3.519592285E-1
8.381612806E1,-1.580200195E-1,-3.535461426E-2,3.532409668E-2
8.386612806E1,1.675720215E-1,-5.368041992E-2,5.731201172E-2
8.391612806E1,1.272583008E-1,-1.947937012E-1,9.674072266E-3
8.396612806E1,5.516052246E-2,-3.811035156E-1,2.188110352E-2
8.401612806E1,-1.448059082E-2,-2.002868652E-1,-3.918457031E-2
8.406612806E1,5.149841309E-2,2.254791260E-1,1.091003418E-2
8.411612806E1,-4.390106201E-1,-2.363281250E-1,-1.369323730E-1
8.416612806E1,2.828979492E-2,-5.856323242E-2,-1.167602539E-1
8.421612806E1,-1.390838623E-1,6.518707275E-1,3.572540283E-1
8.426612806E1,-3.858795166E-1,-1.641845703E-2,-9.155273438E-5
8.431612806E1,8.021545410E-2,-3.988189697E-1,-3.552246094E-2
8.436612806E1,-9.265136719E-2,3.372650146E-1,1.348876953E-1
8.441612806E1,2.933959961E-1,-1.453094482E-1,2.418060303E-1
8.446612806E1,1.272583008E-1,3.220062256E-1,2.717285156E-1
8.451612806E1,2.359771729E-1,-1.251373291E-1,1.318511963E-1
8.456612806E1,2.549285889E-1,4.606781006E-1,-3.430175781E-2
8.461612806E1,-3.760986328E-1,-1.191726685E0,-2.566528320E-1
8.466612806E1,-1.037597656E-3,4.093627930E-1,-1.039428711E-1
8.471612806E1,-5.630187988E-1,-6.254425049E-1,-1.680908203E-1
8.476612806E1,2.767944336E-2,1.118621826E-1,6.221008301E-2
8.481612806E1,1.545715332E-2,7.582092285E-2,1.758270264E-1
8.486612806E1,2.750701904E-1,-5.124359131E-1,3.706970215E-1
8.491612806E1,2.072753906E-1,9.536743164E-2,-9.295654297E-2
8.496612806E1,1.272583008E-1,2.132720947E-1,1.701354980E-2
8.501612806E1,9.730529785E-2,-2.509918213E-1,-7.339477539E-2
8.506612806E1,3.927612305E-2,3.513183594E-1,-1.179962158E-1
8.511612806E1,-8.281402588E-1,-8.093261719E-1,-6.519012451E-1
8.516612806E1,3.300628662E-1,7.838134766E-1,9.457397461E-2
8.521612806E1,-1.989440918E-1,3.152770996E-1,3.471374512E-2
8.526612806E1,4.137420654E-1,2.694702148E-2,-1.155395508E-1
8.531612806E1,5.149841309E-2,5.229797363E-1,-1.564788818E-1
8.536612806E1,1.064758301E-1,-2.601470947E-1,1.446685791E-1
8.541612806E1,3.905334473E-1,-1.782989502E-1,2.454681396E-1
8.546612806E1,5.149841309E-2,4.026336670E-1,4.632568359E-2
8.551612806E1,2.133789062E-1,2.425842285E-1,1.923217773E-1
8.556612806E1,-1.470184326E-1,7.153930664E-1,1.159667969E-1
8.561612806E1,1.205291748E-1,-9.302825928E-1,-3.269195557E-1
8.566612806E1,-3.883209229E-1,2.938842773E-2,-1.558685303E-1
8.571612806E1,-2.337646484E-1,-2.625885010E-1,-1.351013184E-1
8.576612806E1,-3.157043457E-2,-5.576477051E-1,1.342926025E-1
8.581612806E1,-4.272460938E-4,-1.343078613E-1,8.663940430E-2
8.586612806E1,2.152099609E-1,-1.581268311E-1,2.216339111E-1
8.591612806E1,1.541290283E-1,-9.460449219E-2,-3.491210938E-2
8.596612806E1,1.302947998E-1,-2.076110840E-1,-1.357116699E-1
8.601612806E1,-4.074096680E-2,1.014709473E-1,-2.920837402E-1
8.606612806E1,-2.838592529E-1,2.199859619E-1,-2.731628418E-1
8.611612806E1,-3.620452881E-1,-5.246582031E-1,-5.620880127E-1
8.616612806E1,-6.272888184E-2,5.199279785E-1,3.926849365E-1
8.621612806E1,-2.575836182E-1,-6.588745117E-2,4.205322266E-2
8.626612806E1,2.732543945E-1,1.338500977E-1,-1.353454590E-2
8.631612806E1,1.057434082E-2,2.047119141E-1,-3.369140625E-2
8.636612806E1,4.320678711E-1,-4.513549805E-1,7.197570801E-2
8.641612806E1,1.468048096E-1,3.604888916E-1,1.355133057E-1
8.646612806E1,2.152099609E-1,1.008605957E-1,5.364990234E-2
8.651612806E1,4.565124512E-1,8.540649414E-1,7.563781738E-2
8.656612806E1,-4.567413330E-1,-1.434783936E-1,-7.095336914E-2
8.661612806E1,3.251647949E-1,-2.570953369E-1,4.386901855E-2
8.666612806E1,-4.616241455E-1,1.290893555E-2,2.692871094E-1
8.671612806E1,-1.842956543E-1,1.161346436E-1,2.460784912E-1
8.676612806E1,-1.641235352E-1,-1.159820557E-1,1.226806641E-1
8.681612806E1,2.390441895E-1,-1.312561035E-1,2.863922119E-1
8.686612806E1,1.590118408E-1,-7.383728027E-2,5.792236328E-2
8.691612806E1,1.895599365E-1,-1.037750244E-1,1.272583008E-2
8.696612806E1,3.439331055E-2,1.191864014E-1,-1.100616455E-1
8.701612806E1,2.097167969E-1,3.953094482E-1,3.532409668E-2
8.706612806E1,-4.457397461E-1,-2.937469482E-1,-4.918518066E-1
8.711612806E1,5.577087402E-2,-5.416870117E-3,-3.104095459E-1
8.716612806E1,-4.347381592E-1,4.783782959E-1,-9.721374512E-2
8.721612806E1,-1.006011963E-1,7.582092285E-2,-1.057739258E-1
8.726612806E1,-3.279113770E-2,1.027069092E-1,3.715515137E-2
8.731612806E1,1.284790039E-1,-2.497711182E-1,2.314147949E-1
8.736612806E1,2.671356201E-1,-6.466674805E-2,1.556701660E-1
8.741612806E1,1.461791992E-1,1.931152344E-1,1.245117188E-1
8.746612806E1,2.591857910E-1,8.314514160E-2,1.213073730E-2
8.751612806E1,-1.570129395E-2,1.165603638E0,1.147460938E-1
8.756612806E1,-9.204101562E-2,-1.051223755E0,-2.401733398E-1
8.761612806E1,-2.184906006E-1,9.902954102E-2,2.240905762E-1
8.766612806E1,-3.021850586E-1,7.093811035E-2,1.703186035E-1
8.771612806E1,-2.868652344E-3,2.755737305E-2,1.568908691E-1
8.776612806E1,1.358032227E-1,-2.772521973E-1,1.361083984E-1
8.781612806E1,1.614532471E-1,-2.760314941E-1,5.120849609E-2
8.786612806E1,-3.828430176E-2,-6.527709961E-2,-5.018615723E-2
8.791612806E1,9.608459473E-2,-1.440887451E-1,-1.699218750E-1
8.796612806E1,-2.099456787E-1,3.708648682E-1,-2.218475342E-1
8.801612806E1,1.822204590E-1,4.667816162E-1,8.236694336E-2
8.806612806E1,-2.673645020E-1,-4.360809326E-1,-5.126190186E-1
8.811612806E1,2.799682617E-1,1.252899170E-1,2.466888428E-1
8.816612806E1,-2.667541504E-1,2.890167236E-1,1.153411865E-1
8.821612806E1,2.645874023E-2,1.705017090E-1,-8.561706543E-2
8.826612806E1,3.805541992E-2,3.384857178E-1,1.300048828E-1
8.831612806E1,6.494140625E-2,-2.320404053E-1,2.399749756E-1
8.836612806E1,2.982940674E-1,-2.717590332E-1,1.825408936E-1
8.841612806E1,6.860351562E-2,1.173553467E-1,4.205322266E-2
8.846612806E1,2.262115479E-1,6.170501709E-1,1.648406982E-1
8.851612806E1,-7.517852783E-1,-2.882537842E-1,-2.575683594E-2
8.856612806E1,4.479522705E-1,-2.137298584E-1,-5.323791504E-2
8.861612806E1,-5.361480713E-1,7.538909912E-1,1.129150391E-3
8.866612806E1,-4.684448242E-2,-1.654663086E-1,2.491302490E-1
8.871612806E1,-3.767395020E-2,1.448364258E-1,2.405700684E-1
8.876612806E1,1.681823730E-1,1.907348633E-3,2.485198975E-1
8.881612806E1,1.761169434E-1,-3.444519043E-1,1.886596680E-1
8.886612806E1,7.594299316E-2,-3.420104980E-1,-2.053527832E-1
8.891612806E1,8.743286133E-3,-4.947204590E-1,-1.748046875E-1
8.896612806E1,-5.477905273E-2,2.578582764E-1,-1.051635742E-1
8.901612806E1,-7.194061279E-1,-4.904479980E-1,-5.847015381E-1
8.906612806E1,1.822204590E-1,3.891906738E-1,2.973937988E-1
8.911612806E1,-3.064575195E-1,4.289093018E-1,2.821197510E-1
8.916612806E1,9.426879883E-2,-1.379852295E-1,-1.638183594E-1
8.921612806E1,4.051208496E-2,-1.874542236E-1,-5.567932129E-2
8.926612806E1,6.616210938E-2,-4.397430420E-1,1.770477295E-1
8.931612806E1,3.764801025E-1,-1.483612061E-1,-4.379272461E-3
8.936612806E1,1.034240723E-1,3.733062744E-1,1.800994873E-1
8.941612806E1,3.239440918E-1,-2.923583984E-2,5.487060547E-2
8.946612806E1,-2.667236328E-2,8.552856445E-1,9.274291992E-2
8.951612806E1,-1.769561768E-1,-7.170867920E-1,-1.937866211E-3
8.956612806E1,-2.282714844E-1,2.725219727E-1,2.882232666E-1
8.961612806E1,-3.400573730E-1,-5.069427490E-1,1.984252930E-1
8.966612806E1,-1.012115479E-1,1.405792236E-1,1.752166748E-1
8.971612806E1,-2.685852051E-1,1.680603027E-1,8.236694336E-2
8.976612806E1,2.744750977E-1,-6.608734131E-1,2.705078125E-1
8.981612806E1,-9.509277344E-2,-7.933044434E-2,-1.130981445E-1
8.986612806E1,3.184509277E-1,-2.632141113E-1,-6.668090820E-2
8.991612806E1,-6.578063965E-2,2.737426758E-1,-2.248992920E-1
8.996612806E1,2.188720703E-1,1.540222168E-1,9.152221680E-2
9.001612806E1,-3.449401855E-1,-4.450988770E-2,-5.938568115E-1
9.006612806E1,-2.496490479E-1,2.963409424E-1,-1.112823486E-1
9.011612806E1,-4.939880371E-1,-2.234954834E-1,1.232910156E-1
9.016612806E1,7.716369629E-2,2.474822998E-1,-1.955718994E-1
9.021612806E1,2.340698242E-2,5.406951904E-1,-1.540374756E-1
9.026612806E1,-1.203918457E-2,-4.483032227E-1,1.489562988E-1
9.031612806E1,2.769165039E-1,-4.263153076E-1,-1.109313965E-2
9.036612806E1,-2.912902832E-2,2.908477783E-1,1.764373779E-1
9.041612806E1,1.571807861E-1,3.238372803E-1,1.403961182E-1
9.046612806E1,-6.613769531E-1,-2.131195068E-1,-8.866882324E-2
9.051612806E1,3.972625732E-1,9.719848633E-2,-2.548370361E-1
9.056612806E1,-2.753143311E-1,3.348236084E-1,1.884460449E-2
9.061612806E1,-8.227539062E-2,-9.399414062E-2,3.016662598E-1
9.066612806E1,1.492462158E-1,-9.689331055E-3,3.914642334E-1
9.071612806E1,1.632843018E-1,-3.792724609E-1,2.711181641E-1
9.076612806E1,2.610321045E-1,-3.988189697E-1,2.430267334E-1
9.081612806E1,5.027770996E-2,-1.074371338E-1,-4.408264160E-2
9.086612806E1,1.484680176E-2,-6.344604492E-2,-7.431030273E-3
9.091612806E1,4.470825195E-3,5.944519043E-1,-1.638183594E-1
9.096612806E1,-3.443298340E-1,2.462463379E-1,-3.971710205E-1
9.101612806E1,-1.354217529E-1,-2.435302734E-2,-4.924621582E-1
9.106612806E1,-3.046264648E-1,1.907348633E-3,-5.323791504E-2
9.111612806E1,5.577087402E-2,-3.535461426E-2,-2.303924561E-1
9.116612806E1,2.341461182E-1,6.188812256E-1,3.570556641E-3
9.121612806E1,1.584014893E-1,-2.338867188E-1,9.764099121E-2
9.126612806E1,3.233337402E-1,-5.680236816E-1,1.306304932E-1
9.131612806E1,1.058654785E-1,3.152770996E-1,6.404113770E-2
9.136612806E1,1.327514648E-1,-2.412109375E-1,1.177825928E-1
9.141612806E1,1.626892090E-1,1.116744995E0,-1.312255859E-3
9.146612806E1,-2.765350342E-1,-1.006011963E0,-3.308105469E-2
9.151612806E1,-1.141357422E-2,-2.094421387E-1,5.915832520E-2
9.156612806E1,-3.932037354E-1,2.053222656E-1,-3.674316406E-2
9.161612806E1,-1.513061523E-1,-1.672973633E-1,-4.835510254E-2
9.166612806E1,1.545715332E-2,4.588317871E-2,1.055755615E-1
9.171612806E1,1.712341309E-1,-4.043121338E-1,1.446685791E-1
9.176612806E1,1.199188232E-1,-2.332763672E-1,-2.758789062E-2
9.181612806E1,1.403808594E-3,-2.662506104E-1,-7.217407227E-2
9.186612806E1,-1.824493408E-1,-3.358917236E-1,-4.014282227E-1
9.191612806E1,-1.494598389E-1,5.522918701E-1,-3.116302490E-1
9.196612806E1,-2.056579590E-1,-1.672973633E-1,-7.801818848E-1
9.201612806E1,3.439331055E-2,1.582794189E-1,5.487060547E-2
9.206612806E1,-3.064575195E-1,-2.173919678E-1,-4.591369629E-2
9.211612806E1,8.570861816E-2,1.307983398E-1,-1.644134521E-1
9.216612806E1,1.468048096E-1,2.169342041E-1,1.892700195E-1
9.221612806E1,3.312835693E-1,-4.336395264E-1,1.208496094E-1
9.226612806E1,3.838195801E-1,-1.508026123E-1,1.935424805E-1
9.231612806E1,1.449584961E-1,1.216278076E-1,-2.758789062E-2
9.236612806E1,3.178405762E-1,4.453887939E-1,5.609130859E-2
9.241612806E1,-3.119659424E-1,9.615783691E-1,1.318511963E-1
9.246612806E1,3.221130371E-1,-9.931945801E-1,-1.353454590E-2
9.251612806E1,-2.068939209E-1,1.900482178E-1,2.943267822E-1
9.256612806E1,7.960510254E-2,3.555908203E-1,3.065490723E-1
9.261612806E1,8.021545410E-2,2.065429688E-1,1.782684326E-1
9.266612806E1,1.174774170E-1,-4.507446289E-1,1.251220703E-1
9.271612806E1,9.364318848E-2,-3.609466553E-1,2.136993408E-1
9.276612806E1,2.646942139E-1,-5.606994629E-1,1.943969727E-2
9.281612806E1,-6.333923340E-2,6.176757812E-2,-1.192169189E-1
9.286612806E1,2.624511719E-3,4.942626953E-1,-1.473083496E-1
9.291612806E1,-7.957611084E-1,5.566406250E-2,-6.573944092E-1
9.296612806E1,2.084960938E-1,2.529754639E-1,-4.774475098E-2
9.301612806E1,-2.313232422E-1,8.926391602E-2,1.807098389E-1
9.306612806E1,4.966735840E-2,1.650085449E-1,-1.515960693E-1
9.311612806E1,1.327514648E-1,4.191284180E-1,-1.821289062E-1
9.316612806E1,1.981048584E-1,-3.273468018E-1,-4.835510254E-2
9.321612806E1,2.158203125E-1,-3.016815186E-1,3.570556641E-3
9.326612806E1,1.040344238E-1,1.167449951E-1,-3.735351562E-2
9.331612806E1,1.211395264E-1,7.154846191E-2,-2.941894531E-2
9.336612806E1,1.040344238E-1,1.026947021E0,1.611633301E-1
9.341612806E1,-1.457977295E-1,-1.115982056E0,-1.130981445E-1
9.346612806E1,-5.172729492E-2,5.437469482E-1,1.880493164E-1
9.351612806E1,-6.888580322E-1,-2.900848389E-1,-1.088409424E-1
9.356612806E1,1.687927246E-1,-1.269836426E-1,1.281738281E-1
9.361612806E1,3.561401367E-2,4.918212891E-1,5.303955078E-2
9.366612806E1,4.051971436E-1,-3.804931641E-1,1.776580811E-1
9.371612806E1,2.029418945E-3,-2.338867188E-1,-7.431030273E-3
9.376612806E1,1.606750488E-2,-3.377380371E-1,-1.491546631E-1
9.381612806E1,-7.859802246E-2,1.167449951E-1,-1.955718994E-1
9.386612806E1,-3.650970459E-1,3.720855713E-1,-2.371063232E-1
9.391612806E1,-5.385894775E-1,-1.941833496E-1,-7.630767822E-1
9.396612806E1,-1.201477051E-1,1.314086914E-1,1.898803711E-1
9.401612806E1,-2.148284912E-1,8.192443848E-2,-9.783935547E-2
9.406612806E1,-3.401184082E-2,-2.485504150E-1,-2.456665039E-1
9.411612806E1,6.738281250E-2,1.046752930E-2,-2.514648438E-2
9.416612806E1,1.535186768E-1,-2.784729004E-1,1.715545654E-1
9.421612806E1,3.294525146E-1,1.815032959E-1,9.152221680E-2
9.426612806E1,3.250122070E-3,2.267456055E-2,5.181884766E-2
9.431612806E1,3.422698975E-1,4.142456055E-1,1.972045898E-1
9.436612806E1,-4.017639160E-1,4.808197021E-1,3.664093018E-1
9.441612806E1,1.498565674E-1,-1.081771851E0,3.837585449E-2
9.446612806E1,-3.779296875E-1,5.431365967E-1,-4.469299316E-2
9.451612806E1,-4.158020020E-1,8.192443848E-2,1.232910156E-1
9.456612806E1,1.700134277E-1,-4.495239258E-1,2.204132080E-1
9.461612806E1,9.852600098E-2,1.594543457E-2,2.961730957E-1
9.466612806E1,2.390441895E-1,-1.587524414E-1,3.572540283E-1
9.471612806E1,1.889495850E-1,-7.688903809E-2,1.232910156E-1
9.476612806E1,4.234313965E-2,-1.294250488E-1,-1.002807617E-1
9.481612806E1,8.204650879E-2,1.766052246E-1,-1.109313965E-2
9.486612806E1,-6.283874512E-1,-5.228271484E-1,-2.071838379E-1
9.491612806E1,2.836303711E-1,-1.226959229E-1,-2.090148926E-1
9.496612806E1,-3.157043457E-2,4.643402100E-1,1.947631836E-1
9.501612806E1,-5.722045898E-2,-3.377380371E-1,-8.622741699E-2
9.506612806E1,6.799316406E-2,2.334289551E-1,-1.967926025E-1
9.511612806E1,1.046447754E-1,1.601257324E-1,1.294097900E-1
9.516612806E1,3.587646484E-1,-1.764526367E-1,2.124786377E-1
9.521612806E1,7.653808594E-2,2.865753174E-1,1.721649170E-1
9.526612806E1,1.761169434E-1,-2.454833984E-1,1.465148926E-1
9.531612806E1,-1.060943604E-1,5.559539795E-1,1.135253906E-1
9.536612806E1,-1.965026855E-1,-8.209228516E-1,-4.655761719E-1
9.541612806E1,-2.948608398E-1,7.618255615E-1,1.028442383E-2
9.546612806E1,-1.690063477E-1,-4.617462158E-1,1.636199951E-1
9.551612806E1,1.370239258E-1,4.974365234E-3,2.503509521E-1
9.556612806E1,3.990173340E-2,2.053222656E-1,1.116790771E-1
9.561612806E1,2.909545898E-1,-3.957672119E-1,1.361083984E-1
9.566612806E1,1.419067383E-1,-1.037750244E-1,-1.143188477E-1
9.571612806E1,1.651306152E-1,-1.294250488E-1,-6.118774414E-2
9.576612806E1,6.860351562E-2,2.615203857E-1,-1.467132568E-1
9.581612806E1,-8.105468750E-2,6.421051025E-1,8.969116211E-2
9.586612806E1,-8.489074707E-1,-8.264312744E-1,-5.321655273E-1
9.591612806E1,4.235229492E-1,5.113677979E-1,3.816833496E-1
9.596612806E1,-2.606506348E-1,4.368438721E-1,4.327392578E-2
9.601612806E1,4.106903076E-1,-3.212280273E-1,-1.888580322E-1
9.606612806E1,1.119689941E-1,2.028808594E-1,-1.454925537E-1
9.611612806E1,2.811889648E-1,-3.718566895E-2,1.116790771E-1
9.616612806E1,1.302947998E-1,-1.245422363E-1,1.575012207E-1
9.621612806E1,1.240539551E-2,1.753845215E-1,7.685852051E-2
9.626612806E1,1.516876221E-1,1.601257324E-1,1.434478760E-1
9.631612806E1,-5.661010742E-2,5.547332764E-1,8.786010742E-2
9.636612806E1,1.773376465E-1,-7.922210693E-1,-3.446197510E-1
9.641612806E1,-1.439666748E-1,-5.368041992E-2,-1.937866211E-3
9.646612806E1,-2.264404297E-1,2.010498047E-1,-4.347229004E-2
9.651612806E1,-5.599975586E-2,5.089263916E-1,-7.585144043E-2
9.656612806E1,8.815002441E-2,-3.493347168E-1,4.449462891E-2
9.661612806E1,1.364135742E-1,-4.598999023E-1,1.000823975E-1
9.666612806E1,-9.814453125E-2,-3.951416016E-1,-1.778564453E-1
9.671612806E1,2.462768555E-2,-5.936889648E-1,-9.965515137E-2
9.676612806E1,-1.537475586E-1,5.137634277E-2,-3.128662109E-1
9.681612806E1,-1.089599609E0,-8.917846680E-1,-5.364379883E-1
9.686612806E1,-1.995849609E-2,4.979248047E-1,-3.491210938E-2
9.691612806E1,-1.855163574E-1,8.449096680E-1,4.348449707E-1
9.696612806E1,-2.826385498E-1,-3.041229248E-1,1.519927979E-1
9.701612806E1,3.500366211E-2,-1.288146973E-1,-1.900787354E-1
9.706612806E1,-4.499816895E-2,-1.416473389E-1,1.281738281E-1
9.711612806E1,3.221130371E-1,-6.466674805E-2,1.752166748E-1
9.716612806E1,2.133789062E-1,1.900482178E-1,1.629943848E-1
9.721612806E1,3.386077881E-1,-2.118988037E-1,1.990356445E-1
9.726612806E1,1.993255615E-1,9.939575195E-1,1.019134521E-1
9.731612806E1,-2.191009521E-1,-7.335662842E-1,1.348876953E-1
9.736612806E1,4.783630371E-2,6.910705566E-2,1.776580811E-1
9.741612806E1,-2.826385498E-1,3.409423828E-1,1.335144043E-2
9.746612806E1,-9.387207031E-2,2.254791260E-1,6.404113770E-2
9.751612806E1,6.677246094E-2,-6.039428711E-2,8.602905273E-2
9.756612806E1,2.744750977E-1,-3.743743896E-1,1.128997803E-1
9.761612806E1,1.382446289E-1,-3.554382324E-1,-3.342437744E-1
9.766612806E1,-3.157043457E-2,-3.230743408E-1,-3.214111328E-1
9.771612806E1,-6.150817871E-2,3.672790527E-2,-4.826812744E-1
9.776612806E1,-5.227050781E-1,4.179077148E-1,-3.476867676E-1
9.781612806E1,-7.597351074E-1,-3.609466553E-1,-6.983184814E-1
9.786612806E1,3.361663818E-1,3.433837891E-1,1.275634766E-1
9.791612806E1,-6.088256836E-2,1.259155273E-1,3.410339355E-2
9.796612806E1,2.274322510E-1,-3.352355957E-2,-2.872009277E-1
9.801612806E1,7.531738281E-2,3.977966309E-2,-5.201721191E-2
9.806612806E1,3.422698975E-1,-2.149505615E-1,1.568908691E-1
9.811612806E1,2.610321045E-1,-9.033203125E-2,8.175659180E-2
9.816612806E1,3.500366211E-2,2.163238525E-1,2.588958740E-1
9.821612806E1,3.013458252E-1,5.920104980E-1,4.128417969E-1
9.826612806E1,-4.481811523E-1,-9.033203125E-2,1.874237061E-1
9.831612806E1,1.993255615E-1,8.436584473E-2,1.055755615E-1
9.836612806E1,-3.015747070E-1,5.028228760E-1,1.636199951E-1
9.841612806E1,-5.630187988E-1,-1.495819092E-1,1.685028076E-1
9.846612806E1,1.968841553E-1,2.297515869E-1,3.837585449E-2
9.851612806E1,6.738281250E-2,1.686706543E-1,2.259216309E-1
9.856612806E1,1.419067383E-1,-1.214752197E-1,6.282043457E-2
9.861612806E1,1.345825195E-1,-2.900848389E-1,-1.002807617E-1
9.866612806E1,7.838439941E-2,-1.263580322E-1,-1.583099365E-1
9.871612806E1,1.498565674E-1,2.108154297E-1,-1.467132568E-1
9.876612806E1,-5.208740234E-1,-2.711486816E-1,-2.401733398E-1
9.881612806E1,-8.776855469E-2,-1.862335205E-1,-3.104095459E-1
9.886612806E1,-7.798767090E-2,2.639617920E-1,3.480834961E-1
9.891612806E1,-2.881317139E-1,-1.593475342E-1,-3.354644775E-1
9.896612806E1,2.371978760E-1,5.016021729E-1,-1.436462402E-1
9.901612806E1,5.639648438E-2,7.460021973E-2,1.128997803E-1
9.906612806E1,4.369506836E-1,-3.847656250E-1,1.232910156E-1
9.911612806E1,9.364318848E-2,2.621307373E-1,2.128601074E-2
9.916612806E1,2.091064453E-1,-2.088317871E-1,1.335144043E-2
9.921612806E1,5.603637695E-1,9.542541504E-1,8.419799805E-2
9.926612806E1,-5.361480713E-1,-4.464569092E-1,-7.019042969E-4
9.931612806E1,4.290161133E-1,-4.873962402E-1,-4.103088379E-2
9.936612806E1,-3.376159668E-1,2.902374268E-1,6.037902832E-2
