"Time (s)","Acceleration x (m/s^2)","Acceleration y (m/s^2)","Acceleration z (m/s^2)"
6.476973900E-2,-2.943115234E-1,1.191619873E0,9.985244751E0
1.147697390E-1,1.435852051E-2,1.294509888E0,1.078684998E1
1.647697390E-1,-2.823486328E-1,1.383056641E0,9.978073120E0
2.147697390E-1,1.363983154E-1,9.906311035E-1,9.604797363E0
2.647697390E-1,2.416687012E-1,8.542327881E-1,1.007139587E1
3.147697390E-1,4.067840576E-1,7.752685547E-1,9.343978882E0
3.647697390E-1,6.747741699E-1,5.647125244E-1,9.600006104E0
4.147697390E-1,-1.866455078E-1,1.423736572E0,9.602401733E0
4.647697390E-1,-1.507415771E-1,1.244262695E0,8.810379028E0
5.147697390E-1,-2.153472900E-1,1.186843872E0,1.096870422E1
5.647697390E-1,2.368927002E-1,9.284210205E-1,9.999603271E0
6.147697390E-1,-2.847442627E-1,1.031311035E0,9.779464722E0
6.647697390E-1,-1.627044678E-1,1.052841187E0,1.013121033E1
7.147697390E-1,-5.958099365E-1,6.388854980E-1,1.044227600E1
7.647697390E-1,-4.642028809E-1,1.215560913E0,1.004028320E1
8.147697390E-1,-6.388854980E-1,1.406982422E0,9.942184448E0
8.647697390E-1,-6.077728271E-1,1.478759766E0,1.007617188E1
9.147697390E-1,-8.159484863E-1,1.670196533E0,9.444473267E0
9.647697390E-1,-3.134613037E-1,1.713256836E0,1.015274048E1
1.014769739E0,-3.780670166E-1,1.701293945E0,1.014796448E1
1.064769739E0,4.067993164E-2,2.057830811E0,1.010249329E1
1.114769739E0,-4.881286621E-1,1.533798218E0,9.463607788E0
1.164769739E0,-2.560272217E-1,2.041076660E0,1.073898315E1
1.214769739E0,-5.910339355E-1,1.849655151E0,1.061695862E1
1.264769739E0,-7.177734375E-2,1.622329712E0,1.046620178E1
1.314769739E0,-1.004943848E-1,9.427795410E-1,1.060499573E1
1.364769739E0,6.006011963E-1,8.877410889E-1,1.160997009E1
1.414769739E0,-3.302154541E-1,5.886383057E-1,9.533004761E0
1.464769739E0,-5.001068115E-1,6.843414307E-1,8.925231934E0
1.514769739E0,1.746826172E-1,8.566284180E-1,9.253051758E0
1.564769739E0,-8.709869385E-1,9.427795410E-1,9.410964966E0
1.614769739E0,-5.479583740E-1,1.143768311E0,8.688339233E0
1.664769739E0,-5.886383057E-1,1.615158081E0,9.533004761E0
1.714769739E0,-1.986083984E-1,1.782653809E0,1.032502747E1
1.764769739E0,-5.886383057E-1,2.105682373E0,1.062413025E1
1.814769739E0,-5.168457031E-1,2.158325195E0,1.100698853E1
1.864769739E0,-6.867370605E-1,1.160522461E0,1.215075684E1
1.914769739E0,-1.203582764E0,1.557723999E0,1.073181152E1
1.964769739E0,-1.189239502E0,8.422698975E-1,1.236370850E1
2.014769739E0,-6.628112793E-1,1.914215088E-1,8.420349121E0
2.064769739E0,-1.016952515E0,1.021728516E0,8.417953491E0
2.114769739E0,-5.599212646E-1,8.566284180E-1,8.104492188E0
2.164769739E0,-9.140625000E-1,1.064804077E0,8.109283447E0
2.214769739E0,-5.240325928E-1,1.646255493E0,8.992233276E0
2.264769739E0,-6.843414307E-1,2.172683716E0,9.509078979E0
2.314769739E0,-1.064804077E0,2.112869263E0,1.048535156E1
2.364769739E0,-3.349914551E-1,1.856826782E0,1.072224426E1
2.414769739E0,-8.231353760E-1,1.339981079E0,1.188037109E1
2.464769739E0,-1.110275269E0,1.744369507E0,1.036331177E1
2.514769739E0,-5.216369629E-1,1.208374023E0,1.146162415E1
2.564769739E0,-7.202453613E-1,4.259185791E-1,1.011924744E1
2.614769739E0,-3.110656738E-1,6.915283203E-1,8.295913696E0
2.664769739E0,-4.235229492E-1,1.138977051E0,9.410964966E0
2.714769739E0,-1.055236816E0,1.473983765E0,7.350753784E0
2.764769739E0,-8.398742676E-1,1.627120972E0,8.013565063E0
2.814769739E0,-2.943115234E-1,2.163116455E0,9.391830444E0
2.864769739E0,-5.455627441E-1,2.098510742E0,1.079641724E1
2.914769739E0,-5.623168945E-1,1.983642578E0,1.304806519E1
2.964769739E0,-1.217941284E0,1.926223755E0,1.176550293E1
3.014769739E0,-6.101684570E-1,7.346038818E-1,1.350030518E1
3.064769739E0,-1.296905518E0,7.537384033E-1,9.200408936E0
3.114769739E0,-6.843414307E-1,9.595184326E-1,9.315261841E0
3.164769739E0,-6.125640869E-1,9.595184326E-1,7.726425171E0
3.214769739E0,-1.280166626E0,1.466796875E0,7.439285278E0
3.264769739E0,-1.162918091E0,1.524230957E0,8.116455078E0
3.314769739E0,-8.877410889E-1,1.957336426E0,9.322433472E0
3.364769739E0,-1.069595337E0,1.897506714E0,1.039920044E1
3.414769739E0,-2.847442627E-1,1.354339600E0,1.208375549E1
3.464769739E0,-7.298126221E-1,1.440475464E0,1.226321411E1
3.514769739E0,6.245269775E-1,1.129409790E0,1.085862732E1
3.564769739E0,-9.595184326E-1,6.700134277E-2,1.111227417E1
3.614769739E0,6.628112793E-1,3.325958252E-1,8.523239136E0
3.664769739E0,-1.007385254E0,8.614196777E-1,9.643081665E0
3.714769739E0,-7.824554443E-1,1.363906860E0,7.609176636E0
3.764769739E0,-9.547424316E-1,1.847259521E0,8.408386230E0
3.814769739E0,-3.637084961E-1,1.995620728E0,9.470794678E0
3.864769739E0,-2.344970703E-1,1.954940796E0,1.119601440E1
3.914769739E0,-3.900299072E-1,1.289733887E0,1.305284119E1
3.964769739E0,-1.265808105E0,1.938186646E0,1.121516418E1
4.014769739E0,-4.355010986E-1,1.158126831E0,1.119361877E1
4.064769739E0,-7.824554443E-1,2.416687012E-1,1.108355713E1
4.114769739E0,-9.044799805E-1,5.647125244E-1,7.752746582E0
4.164769739E0,-9.164581299E-1,1.091125488E0,8.267196655E0
4.214769739E0,-8.255310059E-1,1.526626587E0,7.398605347E0
4.264769739E0,-1.442871094E0,1.514663696E0,8.200210571E0
4.314769739E0,-6.604156494E-1,2.337783813E0,1.030349731E1
4.364769739E0,-6.915283203E-1,1.545761108E0,1.051644897E1
4.414769739E0,-7.585296631E-1,1.038482666E0,1.269392395E1
4.464769739E0,-4.905242920E-1,1.162918091E0,1.119123840E1
4.514769739E0,-6.915283203E-1,7.106628418E-1,1.262692261E1
4.564769739E0,-3.613128662E-1,-3.828430176E-2,9.832107544E0
4.614769739E0,-2.010040283E-1,5.934143066E-1,7.630706787E0
4.664769739E0,-6.604156494E-1,8.661956787E-1,8.669189453E0
4.714769739E0,-4.235229492E-1,1.423736572E0,6.783645630E0
4.764769739E0,-6.125640869E-1,1.562515259E0,8.585449219E0
4.814769739E0,7.800598145E-1,2.007583618E0,9.817749023E0
4.864769739E0,-6.604156494E-1,1.593612671E0,1.219381714E1
4.914769739E0,3.110656738E-1,1.864013672E0,1.208135986E1
4.964769739E0,-1.471588135E0,1.907073975E0,1.153579712E1
5.014769739E0,-6.412811279E-1,6.101684570E-1,1.226800537E1
5.064769739E0,-1.414154053E0,5.240325928E-1,9.159729004E0
5.114769739E0,3.302154541E-1,4.953155518E-1,8.243270874E0
5.164769739E0,-7.250213623E-1,8.829498291E-1,8.401199341E0
5.214769739E0,-8.829498291E-1,8.614196777E-1,6.903289795E0
5.264769739E0,-7.346038818E-1,1.445266724E0,7.676177979E0
5.314769739E0,-1.507415771E-1,1.718048096E0,9.841674805E0
5.364769739E0,-4.402770996E-1,1.308868408E0,1.174636841E1
5.414769739E0,-1.004943848E-1,1.129409790E0,1.309114075E1
5.464769739E0,-9.092712402E-2,1.036087036E0,1.281834412E1
5.514769739E0,2.656097412E-1,2.679901123E-1,1.153340149E1
5.564769739E0,-3.948211670E-1,1.196289062E-2,1.037049866E1
5.614769739E0,9.714813232E-1,5.120697021E-1,8.492126465E0
5.664769739E0,-4.833526611E-1,7.130584717E-1,8.248062134E0
5.714769739E0,-1.244201660E-1,1.048049927E0,7.357925415E0
5.764769739E0,1.148529053E-1,1.122238159E0,7.879562378E0
5.814769739E0,-8.375549316E-2,1.428512573E0,1.004507446E1
5.864769739E0,3.900299072E-1,1.392623901E0,1.166261292E1
5.914769739E0,-4.791259766E-3,9.762725830E-1,1.296191406E1
5.964769739E0,5.814514160E-1,3.182525635E-1,1.229432678E1
6.014769739E0,2.129669189E-1,-3.086700439E-1,1.283988953E1
6.064769739E0,-3.469543457E-1,-5.264282227E-2,8.571090698E0
6.114769739E0,5.001068115E-1,2.392883301E-1,9.090332031E0
6.164769739E0,-2.297058105E-1,6.484527588E-1,7.652252197E0
6.214769739E0,-1.055236816E0,1.244262695E0,7.831710815E0
6.264769739E0,2.033843994E-1,1.588836670E0,8.528015137E0
6.314769739E0,-4.067840576E-1,1.083953857E0,1.009532166E1
6.364769739E0,4.163513184E-1,9.068756104E-1,1.210768127E1
6.414769739E0,1.603240967E-1,2.632141113E-1,1.268675232E1
6.464769739E0,8.063812256E-1,2.536315918E-1,1.142333984E1
6.514769739E0,7.417755127E-1,-3.325958252E-1,1.347158813E1
6.564769739E0,-2.153015137E-2,-3.421783447E-1,8.501693726E0
6.614769739E0,1.040878296E0,8.350982666E-1,8.798416138E0
6.664769739E0,-3.589172363E-1,7.680969238E-1,7.781463623E0
6.714769739E0,-5.886383057E-1,1.435699463E0,6.333801270E0
6.764769739E0,-7.489471436E-1,1.557723999E0,8.961120605E0
6.814769739E0,5.599212646E-1,1.543365479E0,9.123840332E0
6.864769739E0,1.914978027E-2,9.044799805E-1,1.286381531E1
6.914769739E0,5.120697021E-1,1.131805420E0,1.310310364E1
6.964769739E0,6.795654297E-1,-7.250213623E-1,1.276332092E1
7.014769739E0,-1.459655762E-1,-5.072784424E-1,1.202394104E1
7.064769739E0,6.843414307E-1,-5.718841553E-1,7.774276733E0
7.114769739E0,-5.288085938E-1,1.746826172E-1,8.018356323E0
7.164769739E0,6.221008301E-2,7.609100342E-1,7.322036743E0
7.214769739E0,-1.124572754E-1,1.428512573E0,7.769500732E0
7.264769739E0,2.057800293E-1,1.651046753E0,9.382263184E0
7.314769739E0,4.259185791E-1,1.287338257E0,1.078923035E1
7.364769739E0,1.483612061E-1,8.733825684E-1,1.292602539E1
7.414769739E0,-9.809875488E-2,1.004989624E0,1.167697144E1
7.464769739E0,1.024124146E0,-3.876342773E-1,1.324188232E1
7.514769739E0,-7.920227051E-1,-2.177429199E-1,1.043750000E1
7.564769739E0,1.172485352E-1,-4.235229492E-1,8.264816284E0
7.614769739E0,6.867370605E-1,8.279113770E-1,7.731216431E0
7.664769739E0,-2.225341797E-1,8.949127197E-1,7.211975098E0
7.714769739E0,2.679901123E-1,1.071990967E0,8.204986572E0
7.764769739E0,6.986999512E-1,1.452438354E0,9.360717773E0
7.814769739E0,1.483612061E-1,1.002593994E0,1.119123840E1
7.864769739E0,3.756713867E-1,1.162918091E0,1.234936523E1
7.914769739E0,2.010040283E-1,4.283142090E-1,1.290209961E1
7.964769739E0,9.571228027E-1,-1.143768311E0,1.355773926E1
8.014769739E0,6.436767578E-1,-3.325958252E-1,9.552154541E0
8.064769739E0,-2.010040283E-1,-1.627044678E-1,9.152542114E0
8.114769739E0,-5.742797852E-1,5.599212646E-1,7.680953979E0
8.164769739E0,-8.829498291E-1,7.250213623E-1,7.209579468E0
8.214769739E0,-6.364898682E-1,7.441711426E-1,7.759918213E0
8.264769739E0,-1.555328369E-1,8.111724854E-1,9.207580566E0
8.314769739E0,1.411743164E-1,4.881286621E-1,1.162432861E1
8.364769739E0,7.154541016E-1,5.359954834E-1,1.229672241E1
8.414769739E0,1.627044678E-1,1.170089722E0,1.279920959E1
8.464769739E0,2.593826294E0,3.588867188E-2,1.035134888E1
8.514769739E0,2.273254395E-1,-6.029968262E-1,1.205743408E1
8.564769739E0,1.074371338E0,-4.570312500E-1,7.077972412E0
8.614769739E0,7.010955811E-1,6.652069092E-1,9.521041870E0
8.664769739E0,2.775726318E-1,1.043273926E0,6.821945190E0
8.714769739E0,-4.977111816E-1,1.277770996E0,7.707275391E0
8.764769739E0,4.791259766E-3,1.926223755E0,8.367706299E0
8.814769739E0,3.134613037E-1,9.092712402E-1,1.220339966E1
8.864769739E0,2.010040283E-1,3.373870850E-1,1.537388611E1
8.914769739E0,2.057800293E-1,-1.914215088E-1,1.303370667E1
8.964769739E0,-1.033706665E0,-1.105484009E0,1.405543518E1
9.014769739E0,-6.700134277E-2,-9.044799805E-1,9.099899292E0
9.064769739E0,2.225341797E-1,5.743408203E-2,8.556732178E0
9.114769739E0,1.026519775E0,8.638153076E-1,5.649459839E0
9.164769739E0,-1.162918091E0,1.036087036E0,7.238281250E0
9.214769739E0,-3.182525635E-1,1.112655640E0,7.580459595E0
9.264769739E0,4.761657715E-1,1.313659668E0,9.867996216E0
9.314769739E0,4.307098389E-1,5.455627441E-1,1.295713806E1
9.364769739E0,2.297058105E-1,7.513427734E-1,1.268435669E1
9.414769739E0,2.392883301E-1,1.038482666E0,1.183010864E1
9.464769739E0,8.566284180E-1,-3.086700439E-1,1.282313538E1
9.514769739E0,-1.818542480E-1,-2.679901123E-1,9.449264526E0
9.564769739E0,9.571838379E-2,4.857482910E-1,7.403396606E0
9.614769739E0,4.235229492E-1,1.567306519E0,6.833908081E0
9.664769739E0,-9.068756104E-1,1.392623901E0,7.556533813E0
9.714769739E0,2.416687012E-1,1.399795532E0,8.786437988E0
9.764769739E0,2.416687012E-1,1.954940796E0,1.058824158E1
9.814769739E0,-1.435852051E-2,1.232299805E0,1.242593384E1
9.864769739E0,-1.794586182E-1,6.532440186E-1,1.359840393E1
9.914769739E0,-9.567260742E-3,8.590240479E-1,1.014077759E1
9.964769739E0,-4.833526611E-1,-4.307556152E-2,1.218904114E1
1.001476974E1,-3.588867188E-2,1.316070557E-1,8.422729492E0
1.006476974E1,8.829498291E-1,4.547119141E-2,8.520843506E0
1.011476974E1,-4.785156250E-2,9.954071045E-1,7.228713989E0
1.016476974E1,-5.312042236E-1,9.690856934E-1,7.661819458E0
1.021476974E1,-1.220397949E-1,1.615158081E0,9.231506348E0
1.026476974E1,3.349914551E-1,1.292129517E0,9.985244751E0
1.031476974E1,2.632141113E-2,7.992095947E-1,1.223689270E1
1.036476974E1,2.177429199E-1,1.014556885E0,1.273460388E1
1.041476974E1,1.775466919E0,-6.628112793E-1,1.230868530E1
1.046476974E1,-5.575256348E-1,-1.002593994E0,1.394058228E1
1.051476974E1,3.924255371E-1,-2.344970703E-1,7.824523926E0
1.056476974E1,8.997039795E-1,5.383911133E-1,8.793624878E0
1.061476974E1,-2.395629883E-3,1.318450928E0,6.991821289E0
1.066476974E1,-9.212341309E-1,1.572082520E0,7.690536499E0
1.071476974E1,2.249298096E-1,2.041076660E0,9.353546143E0
1.076476974E1,2.967071533E-1,1.988433838E0,1.071745300E1
1.081476974E1,6.245269775E-1,9.714813232E-1,1.300019836E1
1.086476974E1,-4.953155518E-1,1.196411133E0,1.287577820E1
1.091476974E1,1.560119629E0,-1.172485352E-1,1.241157532E1
1.096476974E1,-4.833526611E-1,-5.216369629E-1,1.140898132E1
1.101476974E1,2.679901123E-1,-1.722869873E-1,7.587646484E0
1.106476974E1,-2.105712891E-1,5.599212646E-1,7.233505249E0
1.111476974E1,-4.737854004E-1,7.609100342E-1,7.276580811E0
1.116476974E1,-1.368698120E0,9.547424316E-1,8.226531982E0
1.121476974E1,-1.770629883E-1,1.624725342E0,8.695510864E0
1.126476974E1,3.373870850E-1,1.339981079E0,1.076290894E1
1.131476974E1,4.067840576E-1,6.388854980E-1,1.315335083E1
1.136476974E1,7.154541016E-1,3.876342773E-1,1.313899231E1
1.141476974E1,-1.555328369E-1,-4.211425781E-1,1.495753479E1
1.146476974E1,-6.460571289E-2,1.914978027E-2,1.023410034E1
1.151476974E1,8.231353760E-1,3.828430176E-2,7.793426514E0
1.156476974E1,-5.814514160E-1,7.010955811E-1,7.097106934E0
1.161476974E1,-6.245269775E-1,1.074371338E0,6.733398438E0
1.166476974E1,-3.206329346E-1,1.174880981E0,8.563919067E0
1.171476974E1,2.967071533E-1,1.521835327E0,9.288940430E0
1.176476974E1,2.321014404E-1,1.744369507E0,1.096151733E1
1.181476974E1,6.867370605E-1,9.667053223E-1,1.234696960E1
1.186476974E1,-4.259185791E-1,8.973083496E-1,1.206460571E1
1.191476974E1,-6.700134277E-2,1.986083984E-1,1.277288818E1
1.196476974E1,-7.896423340E-2,-4.498443604E-1,9.064010620E0
1.201476974E1,-9.571838379E-2,-1.938171387E-1,1.000679016E1
1.206476974E1,4.067840576E-1,1.579284668E-1,8.470596313E0
1.211476974E1,-2.392578125E-2,5.958099365E-1,7.202392578E0
1.216476974E1,-1.340026855E-1,9.379882812E-1,7.898712158E0
1.221476974E1,-3.517456055E-1,1.526626587E0,9.853637695E0
1.226476974E1,1.004943848E-1,1.115051270E0,1.205264282E1
1.231476974E1,5.168457031E-1,5.575256348E-1,1.214836121E1
1.236476974E1,-8.375549316E-2,8.877410889E-1,1.273939514E1
1.241476974E1,1.521835327E0,4.163513184E-1,1.172961426E1
1.246476974E1,-1.507415771E-1,-3.421783447E-1,9.736389160E0
1.251476974E1,1.170089722E0,-3.588867188E-2,7.252639771E0
1.256476974E1,-2.608184814E-1,7.752685547E-1,9.745971680E0
1.261476974E1,4.785156250E-2,8.997039795E-1,6.532409668E0
1.266476974E1,-8.709869385E-1,1.263412476E0,8.623733521E0
1.271476974E1,6.867370605E-1,1.586441040E0,8.006378174E0
1.276476974E1,2.871398926E-1,1.014556885E0,1.223689270E1
1.281476974E1,7.346038818E-1,5.072784424E-1,1.448374939E1
1.286476974E1,1.000198364E0,-2.488555908E-1,1.321556091E1
1.291476974E1,-8.446655273E-1,-6.771697998E-1,1.179421997E1
1.296476974E1,-3.158569336E-1,-2.847442627E-1,8.047058105E0
1.301476974E1,-3.254241943E-1,-3.828430176E-2,8.157135010E0
1.306476974E1,3.230285645E-1,2.679901123E-1,8.152343750E0
1.311476974E1,-5.383911133E-1,9.834442139E-1,7.551742554E0
1.316476974E1,-4.067840576E-1,1.045669556E0,8.647659302E0
1.321476974E1,5.024719238E-2,1.426116943E0,1.097348022E1
1.326476974E1,5.264282227E-2,1.445266724E0,1.258384705E1
1.331476974E1,9.810638428E-1,8.279113770E-1,1.258384705E1
1.336476974E1,1.718048096E0,6.532440186E-1,1.158126831E1
1.341476974E1,1.840087891E0,-3.804626465E-1,1.191146851E1
1.346476974E1,1.392623901E0,-3.900299072E-1,7.819747925E0
1.351476974E1,6.628112793E-1,1.244201660E-1,9.300903320E0
1.356476974E1,6.340942383E-1,1.028915405E0,8.030319214E0
1.361476974E1,-1.435699463E-1,1.359130859E0,7.508682251E0
1.366476974E1,1.866455078E-1,1.591232300E0,8.410766602E0
1.371476974E1,4.235229492E-1,1.880752563E0,9.511474609E0
1.376476974E1,2.536315918E-1,1.440475464E0,1.162911987E1
1.381476974E1,5.288085938E-1,1.512268066E0,1.206460571E1
1.386476974E1,8.877410889E-1,2.919311523E-1,1.150708008E1
1.391476974E1,-1.866455078E-1,3.349304199E-2,1.157408142E1
1.396476974E1,6.221313477E-1,5.982055664E-1,8.137985229E0
1.401476974E1,-2.632141113E-2,4.450683594E-1,8.334197998E0
1.406476974E1,2.105712891E-1,1.136596680E0,7.726425171E0
1.411476974E1,-4.091796875E-1,1.325622559E0,8.310272217E0
1.416476974E1,4.139556885E-1,1.847259521E0,8.690734863E0
1.421476974E1,1.435699463E-1,1.533798218E0,1.042074585E1
1.426476974E1,1.347152710E0,1.727615356E0,1.241157532E1
1.431476974E1,9.331970215E-1,1.122238159E0,1.282792664E1
1.436476974E1,2.373687744E0,1.119842529E0,1.101895142E1
1.441476974E1,1.167694092E0,-6.412811279E-1,1.259820557E1
1.446476974E1,5.359954834E-1,-1.986083984E-1,8.736190796E0
1.451476974E1,3.541412354E-1,-2.632141113E-2,8.451446533E0
1.456476974E1,5.431671143E-1,1.012161255E0,7.030120850E0
1.461476974E1,-9.571838379E-2,1.825729370E0,8.372482300E0
1.466476974E1,6.460571289E-1,2.060226440E0,8.851058960E0
1.471476974E1,6.795654297E-1,2.301895142E0,1.035614014E1
1.476476974E1,4.498443604E-1,1.481155396E0,1.225125122E1
1.481476974E1,9.332275391E-2,2.328216553E0,1.139701843E1
1.486476974E1,2.177429199E-1,-3.014984131E-1,1.201435852E1
1.491476974E1,7.800598145E-1,1.914978027E-2,1.138505554E1
1.496476974E1,1.165298462E0,6.676025391E-1,6.821945190E0
1.501476974E1,-1.698913574E-1,1.459655762E-1,1.089930725E1
1.506476974E1,1.131805420E0,1.619934082E0,6.372085571E0
1.511476974E1,-5.862426758E-1,1.143768311E0,9.171691895E0
1.516476974E1,1.397415161E0,2.153533936E0,8.618942261E0
1.521476974E1,6.891326904E-1,1.569686890E0,1.076530457E1
1.526476974E1,1.232299805E0,1.146163940E0,1.213879395E1
1.531476974E1,1.179656982E0,9.954071045E-1,1.170808411E1
1.536476974E1,7.680969238E-1,7.417297363E-2,1.353141785E1
1.541476974E1,8.398742676E-1,1.483612061E-1,8.786437988E0
1.546476974E1,2.093719482E0,1.603240967E-1,9.260223389E0
1.551476974E1,-6.939697266E-2,1.356735229E0,8.176269531E0
1.556476974E1,-2.512512207E-1,1.383056641E0,6.848251343E0
1.561476974E1,2.033843994E-1,1.507476807E0,8.353347778E0
1.566476974E1,7.250213623E-1,1.880752563E0,9.305694580E0
1.571476974E1,8.614196777E-1,1.698898315E0,1.184686279E1
1.576476974E1,1.720443726E0,1.225128174E0,1.314138794E1
1.581476974E1,1.497909546E0,-1.021728516E0,1.408894348E1
1.586476974E1,6.077728271E-1,-5.743408203E-2,1.141854858E1
1.591476974E1,3.445739746E-1,-4.307098389E-1,8.319839478E0
1.596476974E1,9.332275391E-2,3.469543457E-1,9.332015991E0
1.601476974E1,4.355010986E-1,9.762725830E-1,7.207183838E0
1.606476974E1,-6.939239502E-1,1.421340942E0,7.759918213E0
1.611476974E1,4.594268799E-1,1.761123657E0,7.506286621E0
1.616476974E1,1.746826172E-1,1.143768311E0,1.094477844E1
1.621476974E1,1.481155396E0,1.110275269E0,1.179182434E1
1.626476974E1,2.464599609E-1,1.674957275E-1,1.279441833E1
1.631476974E1,1.280166626E0,1.189239502E0,1.078205872E1
1.636476974E1,1.600799561E0,3.038940430E-1,1.437129211E1
1.641476974E1,5.168457031E-1,-2.727813721E-1,8.358123779E0
1.646476974E1,1.115051270E0,1.459655762E-1,9.678970337E0
1.651476974E1,4.618072510E-1,7.680969238E-1,7.262222290E0
1.656476974E1,-1.004943848E-1,1.079162598E0,6.711868286E0
1.661476974E1,7.274169922E-1,1.155731201E0,8.705093384E0
1.666476974E1,8.039855957E-1,1.653442383E0,9.334396362E0
1.671476974E1,7.489471436E-1,7.250213623E-1,1.297866821E1
1.676476974E1,7.992095947E-1,9.427795410E-1,1.278485107E1
1.681476974E1,-9.140625000E-1,1.016952515E0,1.072462463E1
1.686476974E1,3.588867188E-2,-3.349304199E-2,1.182054138E1
1.691476974E1,9.332275391E-2,-6.939697266E-2,9.123840332E0
1.696476974E1,6.125640869E-1,3.349914551E-1,8.501693726E0
1.701476974E1,5.503845215E-2,6.580200195E-1,7.116256714E0
1.706476974E1,-4.546356201E-1,1.244262695E0,7.750350952E0
1.711476974E1,1.435699463E-1,1.179656982E0,8.228912354E0
1.716476974E1,-2.560272217E-1,7.680969238E-1,1.149511719E1
1.721476974E1,1.251449585E0,9.044799805E-1,1.268435669E1
1.726476974E1,-3.948211670E-1,7.010955811E-1,1.290209961E1
1.731476974E1,2.242080688E0,4.713897705E-1,1.038246155E1
1.736476974E1,-9.762725830E-1,6.221008301E-2,1.178944397E1
1.741476974E1,1.741973877E0,-7.346038818E-1,7.783859253E0
1.746476974E1,1.119842529E0,5.120697021E-1,1.068634033E1
1.751476974E1,3.373870850E-1,1.079162598E0,6.656829834E0
1.756476974E1,-4.115600586E-1,9.810638428E-1,8.449050903E0
1.761476974E1,8.757781982E-1,1.811370850E0,9.238693237E0
1.766476974E1,4.618072510E-1,9.714813232E-1,1.142811584E1
1.771476974E1,8.398742676E-1,5.623168945E-1,1.369412231E1
1.776476974E1,-8.781585693E-1,8.757781982E-1,1.097348022E1
1.781476974E1,1.172485352E-1,-3.828430176E-2,1.297627258E1
1.786476974E1,9.092712402E-2,-2.392883301E-1,9.585647583E0
1.791476974E1,1.866455078E-1,1.914978027E-2,7.980056763E0
1.796476974E1,-1.196289062E-2,4.355010986E-1,8.152343750E0
1.801476974E1,-4.091796875E-1,7.848510742E-1,6.616149902E0
1.806476974E1,-6.891326904E-1,9.164581299E-1,8.025527954E0
1.811476974E1,3.589172363E-1,1.495513916E0,9.805786133E0
1.816476974E1,4.785156250E-2,5.814514160E-1,1.280638123E1
1.821476974E1,-2.632141113E-2,3.995971680E-1,1.315574646E1
1.826476974E1,1.012161255E0,-3.828430176E-2,1.142573547E1
1.831476974E1,3.421783447E-1,-2.943115234E-1,1.289013672E1
1.836476974E1,8.757781982E-1,-8.374938965E-1,8.535202026E0
1.841476974E1,3.182525635E-1,-6.700134277E-2,8.906082153E0
1.846476974E1,2.368927002E-1,6.604156494E-1,7.231109619E0
1.851476974E1,-3.445739746E-1,1.433303833E0,7.635498047E0
1.856476974E1,3.038940430E-1,1.557723999E0,9.221939087E0
1.861476974E1,7.226257324E-1,1.574478149E0,1.076052856E1
1.866476974E1,7.346038818E-1,4.498443604E-1,1.364387512E1
1.871476974E1,3.924255371E-1,9.523468018E-1,1.177748108E1
1.876476974E1,1.268188477E0,-9.451599121E-1,1.444308472E1
1.881476974E1,-4.307556152E-2,-4.642028809E-1,9.664611816E0
1.886476974E1,1.196441650E-1,-8.015899658E-1,7.417755127E0
1.891476974E1,-5.766754150E-1,4.857482910E-1,8.609375000E0
1.896476974E1,-6.149597168E-1,6.891326904E-1,6.723831177E0
1.901476974E1,-1.222732544E0,1.301696777E0,7.886749268E0
1.906476974E1,1.435699463E-1,1.308868408E0,8.537597656E0
1.911476974E1,5.192413330E-1,1.067199707E0,1.201914978E1
1.916476974E1,3.732757568E-1,3.876342773E-1,1.162432861E1
1.921476974E1,2.847442627E-1,6.915283203E-1,1.160279846E1
1.926476974E1,9.619140625E-1,-8.542327881E-1,1.531645203E1
1.931476974E1,5.024871826E-1,-3.972015381E-1,9.123840332E0
1.936476974E1,7.680969238E-1,3.421783447E-1,8.228912354E0
1.941476974E1,1.746826172E-1,1.060012817E0,6.582656860E0
1.946476974E1,-3.158569336E-1,1.217941284E0,7.113861084E0
1.951476974E1,1.124572754E-1,1.392623901E0,8.121246338E0
1.956476974E1,4.211425781E-1,1.584045410E0,1.017428589E1
1.961476974E1,-3.110656738E-1,8.087768555E-1,1.345962524E1
1.966476974E1,-6.580200195E-1,1.002593994E0,1.218904114E1
1.971476974E1,1.076766968E0,-1.148559570E0,1.671626282E1
1.976476974E1,0.000000000E0,-8.087768555E-1,1.053799438E1
1.981476974E1,1.914215088E-1,-2.512512207E-1,6.905685425E0
1.986476974E1,3.780670166E-1,4.355010986E-1,7.546966553E0
1.991476974E1,-6.532440186E-1,6.986999512E-1,6.994216919E0
1.996476974E1,4.067993164E-2,1.785049438E0,7.692932129E0
2.001476974E1,-1.507415771E-1,1.433303833E0,9.494720459E0
2.006476974E1,1.222732544E0,1.134201050E0,1.194735718E1
2.011476974E1,2.775726318E-1,5.335998535E-1,1.157887268E1
2.016476974E1,5.694885254E-1,1.383056641E0,1.054039001E1
2.021476974E1,1.076766968E0,-6.986999512E-1,1.495993042E1
2.026476974E1,1.866455078E-1,-7.130584717E-1,9.705291748E0
2.031476974E1,9.236297607E-1,-1.196441650E-1,9.298507690E0
2.036476974E1,3.756713867E-1,7.178497314E-1,7.255035400E0
2.041476974E1,-5.718841553E-1,1.160522461E0,7.453643799E0
2.046476974E1,-2.153015137E-2,1.002593994E0,8.243270874E0
2.051476974E1,7.010955811E-1,1.316055298E0,9.454040527E0
2.056476974E1,5.814514160E-1,1.143768311E0,1.177986145E1
2.061476974E1,4.761657715E-1,8.279113770E-1,1.307438660E1
2.066476974E1,1.646255493E0,-2.440643311E-1,1.315335083E1
2.071476974E1,-8.398742676E-1,-3.948211670E-1,1.171286011E1
2.076476974E1,8.973083496E-1,-7.657012939E-1,8.544769287E0
2.081476974E1,1.411743164E-1,3.111267090E-2,9.628723145E0
2.086476974E1,-2.632141113E-2,4.547119141E-2,6.740585327E0
2.091476974E1,-8.111724854E-1,1.201202393E0,8.135604858E0
2.096476974E1,5.096740723E-1,1.117446899E0,8.372482300E0
2.101476974E1,3.589172363E-1,8.063812256E-1,1.224168396E1
2.106476974E1,8.015899658E-1,6.986999512E-1,1.204547119E1
2.111476974E1,-6.293182373E-1,9.260253906E-1,1.216511536E1
2.116476974E1,1.919036865E0,-4.953155518E-1,1.363670349E1
2.121476974E1,1.387786865E-1,-8.685913086E-1,1.158126831E1
2.126476974E1,1.186843872E0,-4.067840576E-1,5.903091431E0
2.131476974E1,9.567260742E-3,6.819610596E-1,9.142974854E0
2.136476974E1,1.004943848E-1,8.709869385E-1,7.199996948E0
2.141476974E1,-3.588867188E-2,1.196411133E0,8.599807739E0
2.146476974E1,1.117446899E0,1.237091064E0,8.894119263E0
2.151476974E1,1.342376709E0,5.407714844E-1,1.215553284E1
2.156476974E1,5.599212646E-1,9.188385010E-1,1.379701233E1
2.161476974E1,-7.034912109E-1,1.222732544E0,9.755538940E0
2.166476974E1,-1.074371338E0,-9.092712402E-2,1.198803711E1
2.171476974E1,1.043273926E0,3.613128662E-1,9.236297607E0
2.176476974E1,1.548156738E0,1.507415771E-1,7.606781006E0
2.181476974E1,-5.359954834E-1,2.679901123E-1,9.590438843E0
2.186476974E1,4.594268799E-1,8.087768555E-1,7.429718018E0
2.191476974E1,-7.226257324E-1,8.039855957E-1,8.693130493E0
2.196476974E1,1.004989624E0,1.021728516E0,9.863220215E0
2.201476974E1,2.440643311E-1,-2.560272217E-1,1.305284119E1
2.206476974E1,2.081756592E-1,4.665985107E-1,1.325624084E1
2.211476974E1,1.395019531E0,-2.440643311E-1,1.155972290E1
2.216476974E1,3.828430176E-2,-7.992095947E-1,1.239721680E1
2.221476974E1,1.361511230E0,1.603240967E-1,7.724029541E0
2.226476974E1,3.876342773E-1,6.986999512E-1,9.016159058E0
2.231476974E1,7.226257324E-1,1.076766968E0,6.386444092E0
2.236476974E1,-9.068756104E-1,1.220336914E0,8.161911011E0
2.241476974E1,6.006011963E-1,1.615158081E0,9.631118774E0
2.246476974E1,4.857482910E-1,1.548156738E0,1.099740601E1
2.251476974E1,6.867370605E-1,7.609100342E-1,1.365104675E1
2.256476974E1,-5.934143066E-1,1.485946655E0,1.099980164E1
2.261476974E1,-2.488555908E-1,8.853149414E-2,1.345722961E1
2.266476974E1,1.459655762E-1,-1.794586182E-1,9.920639038E0
2.271476974E1,6.245269775E-1,5.503540039E-1,8.504089355E0
2.276476974E1,9.643096924E-1,9.331970215E-1,7.992034912E0
2.281476974E1,3.469543457E-1,1.418945312E0,7.360321045E0
2.286476974E1,-3.541412354E-1,1.605590820E0,7.496719360E0
2.291476974E1,1.459655762E-1,2.218139648E0,9.300903320E0
2.296476974E1,1.555328369E-1,1.990829468E0,1.037287903E1
2.301476974E1,5.647125244E-1,1.622329712E0,1.194975281E1
2.306476974E1,3.972015381E-1,2.306686401E0,1.178704834E1
2.311476974E1,3.421783447E-1,2.344970703E-1,1.391186523E1
2.316476974E1,3.732757568E-1,6.771697998E-1,9.667007446E0
2.321476974E1,1.371093750E0,7.680969238E-1,8.324630737E0
2.326476974E1,6.293182373E-1,1.440475464E0,9.152542114E0
2.331476974E1,2.392578125E-2,1.658233643E0,7.862808228E0
2.336476974E1,9.427795410E-1,2.117645264E0,7.932205200E0
2.341476974E1,1.100692749E0,2.225326538E0,8.817550659E0
2.346476974E1,1.227523804E0,2.533996582E0,1.039682007E1
2.351476974E1,5.024871826E-1,1.701293945E0,1.239242554E1
2.356476974E1,-4.953155518E-1,2.153533936E0,1.075813293E1
2.361476974E1,-4.785156250E-2,1.004989624E0,1.237568665E1
2.366476974E1,5.743408203E-2,9.523468018E-1,9.633499146E0
2.371476974E1,6.006011963E-1,1.055236816E0,8.461029053E0
2.376476974E1,5.072784424E-1,1.844863892E0,7.546966553E0
2.381476974E1,-1.363983154E-1,1.919036865E0,7.412963867E0
2.386476974E1,-4.307556152E-2,2.328216553E0,8.762512207E0
2.391476974E1,2.081756592E-1,2.330612183E0,9.126220703E0
2.396476974E1,-1.459655762E-1,2.378463745E0,1.096870422E1
2.401476974E1,1.818542480E-1,2.368896484E0,1.104048157E1
2.406476974E1,1.677368164E0,1.050445557E0,1.300498962E1
2.411476974E1,3.732757568E-1,7.992095947E-1,1.186839294E1
2.416476974E1,1.837692261E0,3.062744141E-1,8.063812256E0
2.421476974E1,5.742797852E-1,7.250213623E-1,1.108833313E1
2.426476974E1,1.667800903E0,1.938186646E0,7.374679565E0
2.431476974E1,-1.435699463E-1,1.095916748E0,7.956130981E0
2.436476974E1,1.210769653E0,2.148757935E0,8.927627563E0
2.441476974E1,2.679901123E-1,2.120040894E0,1.016471863E1
2.446476974E1,7.034912109E-1,1.430908203E0,1.184446716E1
2.451476974E1,4.211425781E-1,2.560317993E0,1.135873413E1
2.456476974E1,-2.368927002E-1,6.843414307E-1,1.128454590E1
2.461476974E1,9.068756104E-1,1.071990967E0,1.017668152E1
2.466476974E1,1.349548340E0,6.915283203E-1,9.408584595E0
2.471476974E1,1.627044678E-1,7.561340332E-1,8.908477783E0
2.476476974E1,6.700134277E-2,1.170089722E0,7.386642456E0
2.481476974E1,-5.862426758E-1,1.576873779E0,8.516052246E0
2.486476974E1,2.344970703E-1,1.538589478E0,8.425125122E0
2.491476974E1,9.809875488E-2,1.567306519E0,1.006420898E1
2.496476974E1,5.024871826E-1,9.260253906E-1,1.305523682E1
2.501476974E1,9.020996094E-1,1.986083984E-1,1.047578430E1
2.506476974E1,-5.694885254E-1,-5.982055664E-1,1.674258423E1
2.511476974E1,1.557723999E0,-3.349304199E-2,8.027923584E0
2.516476974E1,7.944183350E-1,1.435699463E-1,9.399002075E0
2.521476974E1,6.412811279E-1,4.402770996E-1,7.862808228E0
2.526476974E1,4.737854004E-1,1.103088379E0,8.073379517E0
2.531476974E1,1.962127686E-1,1.201202393E0,8.439483643E0
2.536476974E1,8.231353760E-1,1.931015015E0,9.939788818E0
2.541476974E1,3.780670166E-1,1.299301147E0,1.149751282E1
2.546476974E1,1.986083984E-1,1.225128174E0,1.273939514E1
2.551476974E1,1.794586182E-1,-3.852386475E-1,1.102851868E1
2.556476974E1,2.249298096E-1,2.847442627E-1,1.105723572E1
2.561476974E1,1.292129517E0,-1.914978027E-2,9.777069092E0
2.566476974E1,-1.866455078E-1,4.791259766E-3,9.104690552E0
2.571476974E1,1.086334229E0,1.076766968E0,7.585250854E0
2.576476974E1,-4.642028809E-1,1.162918091E0,8.267196655E0
2.581476974E1,4.307098389E-1,1.744369507E0,9.059234619E0
2.586476974E1,2.225341797E-1,1.076766968E0,1.026521301E1
2.591476974E1,5.335998535E-1,4.881286621E-1,1.222253418E1
2.596476974E1,-2.703857422E-1,1.119842529E0,1.116969299E1
2.601476974E1,1.497909546E0,-6.221008301E-2,1.512982178E1
2.606476974E1,2.871704102E-2,5.670928955E-1,1.058106995E1
2.611476974E1,9.331970215E-1,-9.567260742E-3,8.023132324E0
2.616476974E1,7.776641846E-1,1.349548340E0,8.111663818E0
2.621476974E1,-9.332275391E-2,8.829498291E-1,7.716857910E0
2.626476974E1,4.809570312E-1,1.414154053E0,8.504089355E0
2.631476974E1,4.785614014E-1,1.746765137E0,8.630905151E0
2.636476974E1,1.067199707E0,7.322082520E-1,1.166023254E1
2.641476974E1,2.565109253E0,0.000000000E0,1.417507935E1
2.646476974E1,6.700134277E-2,5.407714844E-1,1.049012756E1
2.651476974E1,-2.153015137E-2,-6.747741699E-1,1.054277039E1
2.656476974E1,2.321014404E-1,-5.958099365E-1,1.130130005E1
2.661476974E1,-1.483612061E-1,9.331970215E-1,6.917648315E0
2.666476974E1,2.392578125E-2,1.165298462E0,7.037292480E0
2.671476974E1,4.378814697E-1,1.557723999E0,8.851058960E0
2.676476974E1,7.058868408E-1,1.655838013E0,9.956542969E0
2.681476974E1,9.906311035E-1,1.378265381E0,1.205026245E1
2.686476974E1,4.809570312E-1,6.029968262E-1,1.116491699E1
2.691476974E1,6.269226074E-1,-7.489471436E-1,1.532841492E1
2.696476974E1,1.316055298E0,2.488555908E-1,1.036810303E1
2.701476974E1,1.124633789E0,3.588867188E-2,9.286544800E0
2.706476974E1,1.246658325E0,5.982055664E-1,8.676376343E0
2.711476974E1,2.727813721E-1,1.339981079E0,6.845870972E0
2.716476974E1,4.355010986E-1,9.236297607E-1,7.836486816E0
2.721476974E1,1.375869751E0,1.799407959E0,7.800598145E0
2.726476974E1,7.896270752E-1,1.083953857E0,1.109072876E1
2.731476974E1,8.805541992E-1,1.138977051E0,1.302413940E1
2.736476974E1,-6.460571289E-2,1.725219727E0,1.097587585E1
2.741476974E1,3.588867188E-2,3.780670166E-1,1.273460388E1
2.746476974E1,5.670928955E-1,1.076812744E-1,9.365509033E0
2.751476974E1,1.026519775E0,3.995971680E-1,1.137786865E1
2.756476974E1,7.896423340E-2,1.069595337E0,7.135391235E0
2.761476974E1,-5.144500732E-1,1.366302490E0,7.812561035E0
2.766476974E1,-3.111267090E-2,1.543365479E0,7.171295166E0
2.771476974E1,-8.829498291E-1,1.890335083E0,8.590240479E0
2.776476974E1,1.244201660E-1,1.653442383E0,1.021734619E1
2.781476974E1,-2.488555908E-1,9.523468018E-1,1.275373840E1
2.786476974E1,-6.700134277E-2,1.773086548E0,1.172721863E1
2.791476974E1,3.972015381E-1,6.819610596E-1,1.307678223E1
2.796476974E1,5.551300049E-1,4.067840576E-1,1.057388306E1
2.801476974E1,8.374938965E-1,-1.172485352E-1,8.547164917E0
2.806476974E1,-8.135986328E-2,7.298126221E-1,9.875183105E0
2.811476974E1,2.943115234E-1,1.548156738E0,7.075576782E0
2.816476974E1,-4.689941406E-1,1.696517944E0,7.941772461E0
2.821476974E1,1.698913574E-1,2.112869263E0,8.240875244E0
2.826476974E1,4.809570312E-1,2.196609497E0,1.037527466E1
2.831476974E1,3.589172363E-1,1.136596680E0,1.359840393E1
2.836476974E1,-2.775726318E-1,1.871185303E0,1.087538147E1
2.841476974E1,-3.349304199E-2,8.757781982E-1,1.204067993E1
2.846476974E1,5.910339355E-1,-1.675415039E-2,9.573684692E0
2.851476974E1,-8.973083496E-1,-1.435699463E-1,9.248260498E0
2.856476974E1,-5.886383057E-1,6.340942383E-1,7.965713501E0
2.861476974E1,-5.575256348E-1,1.703689575E0,7.082748413E0
2.866476974E1,1.435699463E-1,2.108078003E0,8.173889160E0
2.871476974E1,5.048828125E-1,1.861618042E0,1.050210571E1
2.876476974E1,8.949127197E-1,1.459625244E0,1.137547302E1
2.881476974E1,-5.264282227E-2,1.560119629E0,1.208375549E1
2.886476974E1,1.899902344E0,6.316986084E-1,1.224885559E1
2.891476974E1,-4.737854004E-1,-1.674957275E-1,1.436412048E1
2.896476974E1,1.495513916E0,2.057800293E-1,7.412963867E0
2.901476974E1,4.259185791E-1,7.250213623E-1,9.008972168E0
2.906476974E1,4.355010986E-1,1.141372681E0,7.372283936E0
2.911476974E1,-7.656860352E-2,1.440475464E0,8.367706299E0
2.916476974E1,2.584228516E-1,1.739578247E0,8.872589111E0
2.921476974E1,2.871704102E-2,1.725219727E0,1.145922852E1
2.926476974E1,7.561340332E-1,1.129409790E0,1.198565674E1
2.931476974E1,-1.607971191E0,1.316055298E0,1.134437561E1
2.936476974E1,8.853149414E-2,-3.086700439E-1,1.600320435E1
2.941476974E1,2.536315918E-1,-1.100769043E-1,1.113380432E1
2.946476974E1,2.919311523E-1,1.962127686E-1,6.996612549E0
2.951476974E1,-5.982055664E-1,1.048049927E0,6.125625610E0
2.956476974E1,-6.556396484E-1,1.746765137E0,6.369689941E0
2.961476974E1,-3.493499756E-1,2.017150879E0,8.697906494E0
2.966476974E1,1.177261353E0,2.225326538E0,9.028121948E0
2.971476974E1,4.019927979E-1,1.988433838E0,1.254078674E1
2.976476974E1,7.944183350E-1,1.682159424E0,1.095912170E1
2.981476974E1,9.355926514E-1,1.665405273E0,1.120080566E1
2.986476974E1,5.718841553E-1,9.020996094E-1,1.576631165E1
2.991476974E1,6.269226074E-1,8.901367188E-1,9.480361938E0
2.996476974E1,6.747741699E-1,1.318450928E0,9.358322144E0
3.001476974E1,-3.828582764E-1,1.452438354E0,6.125625610E0
3.006476974E1,-8.350982666E-1,1.569686890E0,6.891326904E0
3.011476974E1,-4.618072510E-1,1.598403931E0,7.855636597E0
3.016476974E1,-3.780670166E-1,2.275573730E0,9.686141968E0
3.021476974E1,-4.498443604E-1,1.423736572E0,1.296670532E1
3.026476974E1,-2.536315918E-1,2.364105225E0,1.185404968E1
3.031476974E1,-1.124572754E-1,3.230285645E-1,1.273699951E1
3.036476974E1,6.269226074E-1,2.608184814E-1,1.176072693E1
3.041476974E1,1.021728516E0,4.259185791E-1,9.454040527E0
3.046476974E1,-1.392623901E0,6.460571289E-1,7.635498047E0
3.051476974E1,-5.958099365E-1,1.722839355E0,6.458221436E0
3.056476974E1,-1.203582764E0,1.127014160E0,8.073379517E0
3.061476974E1,5.240325928E-1,1.806579590E0,9.760330200E0
3.066476974E1,7.992095947E-1,1.426116943E0,1.113859558E1
3.071476974E1,4.043884277E-1,1.100692749E0,1.250010681E1
3.076476974E1,1.275375366E0,1.007385254E0,1.058824158E1
3.081476974E1,2.105712891E-1,-3.421783447E-1,1.621138000E1
3.086476974E1,1.612762451E0,7.177734375E-2,8.458633423E0
3.091476974E1,-2.751770020E-1,3.684997559E-1,9.068801880E0
3.096476974E1,6.795654297E-1,1.722839355E0,7.085144043E0
3.101476974E1,-9.714813232E-1,1.325622559E0,6.793228149E0
3.106476974E1,5.623168945E-1,1.892715454E0,8.465805054E0
3.111476974E1,-2.225341797E-1,1.911865234E0,1.052124023E1
3.116476974E1,8.327026367E-1,1.155731201E0,1.369412231E1
3.121476974E1,-9.523468018E-1,1.660614014E0,1.132522583E1
3.126476974E1,1.100692749E0,3.948211670E-1,1.235893250E1
3.131476974E1,1.198806763E0,5.503845215E-2,1.167219543E1
3.136476974E1,2.392578125E-2,-9.567260742E-3,7.568496704E0
3.141476974E1,-1.368698120E0,5.575256348E-1,8.111663818E0
3.146476974E1,4.785156250E-2,1.196411133E0,7.819747925E0
3.151476974E1,-4.905242920E-1,1.299301147E0,8.664413452E0
3.156476974E1,3.637084961E-1,1.466796875E0,9.583251953E0
3.161476974E1,5.599212646E-1,1.325622559E0,1.190429688E1
3.166476974E1,5.575256348E-1,9.475555420E-1,1.228713989E1
3.171476974E1,1.172485352E0,2.457427979E0,1.106680298E1
3.176476974E1,1.256225586E0,4.594268799E-1,1.188037109E1
3.181476974E1,-1.220397949E-1,-6.029968262E-1,1.040638733E1
3.186476974E1,9.140625000E-1,5.742797852E-1,7.063613892E0
3.191476974E1,1.083953857E0,1.112655640E0,7.791030884E0
3.196476974E1,5.551300049E-1,1.430908203E0,7.963317871E0
3.201476974E1,-3.086700439E-1,1.217941284E0,8.618942261E0
3.206476974E1,3.708801270E-1,1.801788330E0,9.126220703E0
3.211476974E1,7.896423340E-2,1.112655640E0,1.183489990E1
3.216476974E1,9.809875488E-2,9.834442139E-1,1.391665649E1
3.221476974E1,-1.016952515E0,1.505081177E0,9.588043213E0
3.226476974E1,7.178497314E-1,9.571228027E-1,1.382572937E1
3.231476974E1,7.872314453E-1,2.560272217E-1,9.650253296E0
3.236476974E1,1.208374023E0,1.555328369E-1,5.869598389E0
3.241476974E1,-1.770629883E-1,2.153015137E-2,8.709869385E0
3.246476974E1,1.244201660E-1,6.915283203E-1,8.370086670E0
3.251476974E1,1.627044678E-1,1.464401245E0,8.382064819E0
3.256476974E1,8.542327881E-1,8.949127197E-1,8.930007935E0
3.261476974E1,8.757781982E-1,2.991027832E-1,1.382093811E1
3.266476974E1,-3.852386475E-1,1.150955200E0,1.141137695E1
3.271476974E1,2.967071533E-1,3.349304199E-2,1.469671631E1
3.276476974E1,-4.809570312E-1,3.110656738E-1,1.101176453E1
3.281476974E1,5.910339355E-1,-4.235229492E-1,8.037490845E0
3.286476974E1,5.575256348E-1,5.623168945E-1,8.863021851E0
3.291476974E1,7.537384033E-1,9.284210205E-1,7.654632568E0
3.296476974E1,2.967071533E-1,1.138977051E0,9.061614990E0
3.301476974E1,1.313659668E0,1.641479492E0,8.516052246E0
3.306476974E1,3.014984131E-1,1.062408447E0,1.188037109E1
3.311476974E1,1.263412476E0,8.374938965E-1,1.242831421E1
3.316476974E1,6.460571289E-2,1.007385254E0,1.165065002E1
3.321476974E1,4.067993164E-2,2.751770020E-1,1.361994934E1
3.326476974E1,9.906311035E-1,-2.153472900E-1,9.446868896E0
3.331476974E1,-5.934143066E-1,1.004943848E-1,8.934799194E0
3.336476974E1,-2.464599609E-1,1.007385254E0,7.290924072E0
3.341476974E1,-5.982055664E-1,9.595184326E-1,7.580459595E0
3.346476974E1,2.321014404E-1,1.864013672E0,7.977676392E0
3.351476974E1,3.732757568E-1,1.639083862E0,1.061935425E1
3.356476974E1,9.427795410E-1,8.494567871E-1,1.160758972E1
3.361476974E1,5.264282227E-2,8.661956787E-1,1.239242554E1
3.366476974E1,2.251647949E0,8.973083496E-1,9.291336060E0
3.371476974E1,3.613128662E-1,-4.570312500E-1,1.365583801E1
3.376476974E1,6.077728271E-1,-4.522399902E-1,7.762313843E0
3.381476974E1,-5.838470459E-1,1.603240967E-1,1.091127014E1
3.386476974E1,2.057800293E-1,1.272979736E0,6.561126709E0
3.391476974E1,-5.575256348E-1,1.351943970E0,8.992233276E0
3.396476974E1,4.474639893E-1,1.840087891E0,9.135803223E0
3.401476974E1,-1.387786865E-1,1.832901001E0,1.168176270E1
3.406476974E1,8.303070068E-1,1.194015503E0,1.185165405E1
3.411476974E1,-1.316070557E-1,1.756332397E0,1.202871704E1
3.416476974E1,1.143768311E0,-5.647125244E-1,1.162672424E1
3.421476974E1,-7.417297363E-2,-4.067993164E-2,1.238285828E1
3.426476974E1,2.368927002E-1,1.028900146E-1,7.645065308E0
3.431476974E1,2.967071533E-1,7.441711426E-1,9.064010620E0
3.436476974E1,3.756713867E-1,7.058868408E-1,6.549148560E0
3.441476974E1,-2.081756592E-1,1.021728516E0,8.831909180E0
3.446476974E1,4.211425781E-1,9.667053223E-1,8.903686523E0
3.451476974E1,6.556396484E-1,8.470611572E-1,1.130848694E1
3.456476974E1,1.342376709E0,3.852386475E-1,1.138983154E1
3.461476974E1,8.853149414E-2,1.335189819E0,1.161715698E1
3.466476974E1,1.182052612E0,5.024871826E-1,1.151187134E1
3.471476974E1,5.982055664E-1,-6.460571289E-1,1.168415833E1
3.476476974E1,1.287338257E0,-1.555328369E-1,9.844070435E0
3.481476974E1,2.057800293E-1,5.838470459E-1,7.649856567E0
3.486476974E1,9.331970215E-1,1.141372681E0,7.027725220E0
3.491476974E1,-5.981445312E-2,1.115051270E0,8.752944946E0
3.496476974E1,8.949127197E-1,2.239685059E0,9.817749023E0
3.501476974E1,1.397415161E0,1.763504028E0,1.142333984E1
3.506476974E1,1.962112427E0,1.093521118E0,1.296430969E1
3.511476974E1,-1.770629883E-1,1.500305176E0,9.913467407E0
3.516476974E1,3.517456055E-1,-1.651000977E-1,1.350987244E1
3.521476974E1,9.571838379E-2,-2.057800293E-1,9.384643555E0
3.526476974E1,1.363983154E-1,-1.555328369E-1,9.592819214E0
3.531476974E1,-2.608184814E-1,5.814514160E-1,7.865203857E0
3.536476974E1,7.896423340E-2,1.268188477E0,7.893920898E0
3.541476974E1,4.163513184E-1,1.591232300E0,8.149948120E0
3.546476974E1,4.426727295E-1,1.402191162E0,1.007377625E1
3.551476974E1,5.001068115E-1,1.280166626E0,1.121994019E1
3.556476974E1,1.227523804E0,9.284210205E-1,1.245942688E1
3.561476974E1,3.732757568E-1,1.828109741E0,1.030827332E1
3.566476974E1,3.062820435E0,-2.201385498E-1,1.348594666E1
3.571476974E1,0.000000000E0,-1.962127686E-1,1.006900024E1
3.576476974E1,5.312042236E-1,1.962127686E-1,8.458633423E0
3.581476974E1,-2.416687012E-1,1.655838013E0,7.972885132E0
3.586476974E1,8.853149414E-2,1.854431152E0,6.762115479E0
3.591476974E1,-1.627044678E-1,1.832901001E0,9.174087524E0
3.596476974E1,2.632141113E-1,2.285140991E0,9.152542114E0
3.601476974E1,-2.871398926E-1,1.854431152E0,1.183969116E1
3.606476974E1,1.136596680E0,1.497909546E0,1.277288818E1
3.611476974E1,-7.010955811E-1,2.045867920E0,1.093998718E1
3.616476974E1,1.127014160E0,4.091796875E-1,1.349313354E1
3.621476974E1,5.575256348E-1,-1.459655762E-1,9.932601929E0
3.626476974E1,2.416687012E-1,-2.632141113E-1,9.300903320E0
3.631476974E1,-2.395629883E-3,7.896270752E-1,7.542175293E0
3.636476974E1,2.608184814E-1,1.658233643E0,6.929611206E0
3.641476974E1,1.914978027E-2,1.596008301E0,8.480163574E0
3.646476974E1,1.081558228E0,2.076965332E0,9.791427612E0
3.651476974E1,5.910339355E-1,1.284942627E0,1.127497864E1
3.656476974E1,6.149597168E-1,1.253845215E0,1.152862549E1
3.661476974E1,1.325622559E0,1.830505371E0,1.110269165E1
3.666476974E1,7.896270752E-1,3.684997559E-1,1.415354919E1
3.671476974E1,4.713897705E-1,9.523468018E-1,9.006591797E0
3.676476974E1,6.652069092E-1,7.465667725E-1,7.908279419E0
3.681476974E1,1.555328369E-1,1.478759766E0,8.429916382E0
3.686476974E1,-4.522399902E-1,1.275375366E0,6.991821289E0
3.691476974E1,8.135986328E-2,1.971679688E0,9.162124634E0
3.696476974E1,4.570312500E-1,2.431106567E0,9.765106201E0
3.701476974E1,6.891326904E-1,1.950149536E0,1.182533264E1
3.706476974E1,9.427795410E-1,1.459625244E0,1.311984253E1
3.711476974E1,8.997039795E-1,6.891326904E-1,1.119841003E1
3.716476974E1,-3.134613037E-1,5.790557861E-1,1.263171387E1
3.721476974E1,-2.919311523E-1,5.742797852E-1,7.800598145E0
3.726476974E1,-4.977111816E-1,3.134613037E-1,1.030110168E1
3.731476974E1,4.067840576E-1,1.184448242E0,6.575469971E0
3.736476974E1,-6.101684570E-1,1.117446899E0,8.190628052E0
3.741476974E1,6.723785400E-1,1.490722656E0,9.047256470E0
3.746476974E1,2.201385498E-1,1.701293945E0,1.117448425E1
3.751476974E1,9.810638428E-1,1.215560913E0,1.113380432E1
3.756476974E1,-2.395629883E-3,1.507476807E0,1.268675232E1
3.761476974E1,1.880752563E0,6.364898682E-1,1.024366760E1
3.766476974E1,-3.780670166E-1,-4.163513184E-1,1.277528381E1
3.771476974E1,1.462020874E0,9.809875488E-2,8.599807739E0
3.776476974E1,1.019348145E0,1.038482666E0,9.200408936E0
3.781476974E1,7.393798828E-1,1.007385254E0,7.805389404E0
3.786476974E1,-1.555328369E-1,1.770690918E0,8.312667847E0
3.791476974E1,3.804626465E-1,2.196609497E0,8.937194824E0
3.796476974E1,1.435699463E-1,2.012359619E0,1.040638733E1
3.801476974E1,1.227523804E0,1.844863892E0,1.263888550E1
3.806476974E1,-4.977111816E-1,1.969299316E0,1.230149841E1
3.811476974E1,8.039855957E-1,1.397415161E0,1.106680298E1
3.816476974E1,2.560272217E-1,2.177429199E-1,1.117208862E1
3.821476974E1,8.470611572E-1,7.656860352E-2,8.341384888E0
3.826476974E1,3.062744141E-1,6.436767578E-1,9.564117432E0
3.831476974E1,-1.674957275E-1,8.303070068E-1,7.247863770E0
3.836476974E1,-1.028900146E-1,1.710861206E0,7.735992432E0
3.841476974E1,-1.674957275E-1,1.356735229E0,8.453842163E0
3.846476974E1,-3.924255371E-1,1.813766479E0,1.127976990E1
3.851476974E1,5.743408203E-2,1.753936768E0,1.172483826E1
3.856476974E1,1.914215088E-1,1.335189819E0,1.350987244E1
3.861476974E1,1.502685547E0,1.138977051E0,9.918243408E0
3.866476974E1,-4.547119141E-2,-3.325958252E-1,1.233021545E1
3.871476974E1,6.986999512E-1,2.033843994E-1,9.202789307E0
3.876476974E1,4.067840576E-1,4.546356201E-1,8.609375000E0
3.881476974E1,1.842498779E-1,1.646255493E0,7.625930786E0
3.886476974E1,-3.038940430E-1,2.100891113E0,7.223937988E0
3.891476974E1,5.072784424E-1,2.388031006E0,9.839294434E0
3.896476974E1,5.647125244E-1,2.737396240E0,9.609573364E0
3.901476974E1,7.872314453E-1,1.258621216E0,1.312463379E1
3.906476974E1,-2.632141113E-2,1.909469604E0,1.307199097E1
3.911476974E1,3.014984131E-1,4.355010986E-1,1.054995728E1
3.916476974E1,4.929199219E-1,-2.395629883E-3,1.167457581E1
3.921476974E1,4.857482910E-1,1.363983154E-1,8.202590942E0
3.926476974E1,-5.503845215E-2,1.531372070E-1,9.236297607E0
3.931476974E1,4.977111816E-1,1.526626587E0,6.812362671E0
3.936476974E1,-3.972015381E-1,1.617553711E0,7.604385376E0
3.941476974E1,-6.460571289E-2,1.734802246E0,8.719451904E0
3.946476974E1,-3.111267090E-2,1.799407959E0,1.082273865E1
3.951476974E1,8.446655273E-1,1.363906860E0,1.191146851E1
3.956476974E1,5.024871826E-1,1.067199707E0,1.306481934E1
3.961476974E1,2.230117798E0,7.130584717E-1,9.626327515E0
3.966476974E1,-2.225341797E-1,-2.727813721E-1,1.278964233E1
3.971476974E1,1.323226929E0,3.541412354E-1,8.482559204E0
3.976476974E1,9.571228027E-1,7.824554443E-1,9.293716431E0
3.981476974E1,1.158126831E0,1.634292603E0,7.824523926E0
3.986476974E1,-1.124572754E-1,1.818542480E0,8.319839478E0
3.991476974E1,6.532440186E-1,2.507675171E0,8.748153687E0
3.996476974E1,-9.567260742E-3,2.615356445E0,9.559326172E0
4.001476974E1,7.441711426E-1,1.560119629E0,1.241874695E1
4.006476974E1,-3.732757568E-1,1.792221069E0,1.239721680E1
4.011476974E1,1.701293945E0,8.613586426E-2,1.205026245E1
4.016476974E1,-2.488555908E-1,1.316070557E-1,1.121755981E1
4.021476974E1,3.349914551E-1,4.547119141E-2,8.293518066E0
4.026476974E1,-8.135986328E-2,3.565368652E-1,9.789031982E0
4.031476974E1,9.571838379E-2,1.325622559E0,6.599411011E0
4.036476974E1,-1.107879639E0,1.469192505E0,8.614166260E0
4.041476974E1,3.661041260E-1,1.512268066E0,9.087936401E0
4.046476974E1,7.177734375E-2,1.213165283E0,1.099263000E1
4.051476974E1,4.642028809E-1,9.403839111E-1,1.137547302E1
4.056476974E1,1.028900146E-1,1.395019531E0,1.253359985E1
4.061476974E1,1.239486694E0,4.618072510E-1,1.144726562E1
4.066476974E1,-2.632141113E-2,-4.881286621E-1,1.096391296E1
4.071476974E1,2.256439209E0,3.254241943E-1,1.014077759E1
4.076476974E1,5.503540039E-1,1.038482666E0,7.690536499E0
4.081476974E1,4.402770996E-1,1.624725342E0,7.266998291E0
4.086476974E1,9.567260742E-3,1.804183960E0,8.128417969E0
4.091476974E1,4.067840576E-1,2.457427979E0,9.219543457E0
4.096476974E1,2.656097412E-1,1.734802246E0,1.085623169E1
4.101476974E1,7.298126221E-1,1.426116943E0,1.318923950E1
4.106476974E1,1.770690918E0,2.703857422E-1,1.144487000E1
4.111476974E1,4.043884277E-1,-9.619140625E-1,1.417030334E1
4.116476974E1,1.555328369E-1,-2.871704102E-2,7.429718018E0
4.121476974E1,-9.567260742E-3,-3.613128662E-1,1.037527466E1
4.126476974E1,2.919311523E-1,4.331054688E-1,7.788635254E0
4.131476974E1,-3.637084961E-1,1.509872437E0,7.568496704E0
4.136476974E1,-2.703857422E-1,1.229904175E0,9.095123291E0
4.141476974E1,8.661956787E-1,1.574478149E0,9.954147339E0
4.146476974E1,3.613128662E-1,7.154541016E-1,1.226560974E1
4.151476974E1,1.158126831E0,9.571228027E-1,1.184446716E1
4.156476974E1,8.661956787E-1,6.340942383E-1,9.489929199E0
4.161476974E1,4.355010986E-1,-6.771697998E-1,1.489292908E1
4.166476974E1,7.465667725E-1,-9.571838379E-2,8.791229248E0
4.171476974E1,1.304092407E0,3.134613037E-1,8.472991943E0
4.176476974E1,8.709869385E-1,1.136596680E0,7.156936646E0
4.181476974E1,1.890258789E-1,1.134201050E0,8.420349121E0
4.186476974E1,5.742797852E-1,1.557723999E0,9.166900635E0
4.191476974E1,6.149597168E-1,2.043472290E0,9.621536255E0
4.196476974E1,7.202453613E-1,1.686935425E0,1.187797546E1
4.201476974E1,1.308868408E0,1.399795532E0,1.313899231E1
4.206476974E1,5.647125244E-1,1.380661011E0,9.434906006E0
4.211476974E1,5.814514160E-1,-1.196289062E-2,1.300259399E1
4.216476974E1,6.412811279E-1,-9.092712402E-2,7.094726562E0
4.221476974E1,9.809875488E-2,9.092712402E-2,1.043988037E1
4.226476974E1,9.260253906E-1,5.982055664E-1,7.752746582E0
4.231476974E1,3.421783447E-1,1.335189819E0,8.166702271E0
4.236476974E1,1.340026855E-1,1.287338257E0,8.616561890E0
4.241476974E1,5.743408203E-2,1.820938110E0,1.019821167E1
4.246476974E1,9.786682129E-1,1.502685547E0,1.134197998E1
4.251476974E1,1.076812744E-1,9.020996094E-1,1.263888550E1
4.256476974E1,2.385650635E0,-4.618072510E-1,1.129652405E1
4.261476974E1,4.067993164E-2,-5.455627441E-1,1.358883667E1
4.266476974E1,1.957336426E0,2.392883301E-1,7.022933960E0
4.271476974E1,8.518524170E-1,5.670928955E-1,9.102294922E0
4.276476974E1,7.489471436E-1,1.086334229E0,7.637893677E0
4.281476974E1,-3.828430176E-2,1.397415161E0,7.463211060E0
4.286476974E1,9.619140625E-1,1.605590820E0,9.434906006E0
4.291476974E1,4.642028809E-1,2.100891113E0,1.054516602E1
4.296476974E1,6.460571289E-1,1.610366821E0,1.181814575E1
4.301476974E1,6.652069092E-1,1.383056641E0,1.256710815E1
4.306476974E1,1.579269409E0,-2.823486328E-1,1.384008789E1
4.311476974E1,6.221008301E-2,7.896423340E-2,9.891921997E0
4.316476974E1,5.766754150E-1,2.464599609E-1,8.087738037E0
4.321476974E1,-1.100769043E-1,2.919311523E-1,1.005224609E1
4.326476974E1,6.819610596E-1,9.595184326E-1,6.771682739E0
4.331476974E1,-5.910339355E-1,1.627120972E0,8.159530640E0
4.336476974E1,2.967071533E-1,1.674972534E0,9.188446045E0
4.341476974E1,-2.153472900E-1,1.105484009E0,1.198565674E1
4.346476974E1,7.537384033E-1,1.043273926E0,1.201196289E1
4.351476974E1,-1.387786865E-1,1.447662354E0,1.155255127E1
4.356476974E1,2.371292114E0,2.129669189E-1,1.031546021E1
4.361476974E1,-2.464599609E-1,-8.063812256E-1,1.266520691E1
4.366476974E1,1.182052612E0,6.412811279E-1,7.066009521E0
4.371476974E1,1.136596680E0,1.129409790E0,8.379669189E0
4.376476974E1,3.014984131E-1,9.499511719E-1,7.305282593E0
4.381476974E1,5.240325928E-1,1.804183960E0,9.123840332E0
4.386476974E1,1.196441650E-1,2.409576416E0,9.999603271E0
4.391476974E1,1.205978394E0,1.964508057E0,1.046859741E1
4.396476974E1,7.130584717E-1,1.086334229E0,1.332562256E1
4.401476974E1,1.100769043E-1,1.634292603E0,1.021017456E1
4.406476974E1,1.004989624E0,-4.546356201E-1,1.534756470E1
4.411476974E1,3.134613037E-1,1.100769043E-1,8.082962036E0
4.416476974E1,9.567260742E-3,3.828582764E-1,9.078369141E0
4.421476974E1,2.536315918E-1,6.963043213E-1,8.173889160E0
4.426476974E1,1.148529053E-1,1.172485352E0,7.621139526E0
4.431476974E1,-2.225341797E-1,1.311264038E0,8.561523438E0
4.436476974E1,3.421783447E-1,1.663009644E0,9.353546143E0
4.441476974E1,-4.163513184E-1,9.690856934E-1,1.248814392E1
4.446476974E1,1.600799561E0,8.853454590E-1,1.100219727E1
4.451476974E1,-1.435699463E-1,8.183441162E-1,1.087298584E1
4.456476974E1,1.036087036E0,-2.416687012E-1,1.295474243E1
4.461476974E1,8.542327881E-1,-7.171630859E-3,9.078369141E0
4.466476974E1,1.727615356E0,2.368927002E-1,8.281555176E0
4.471476974E1,3.852386475E-1,9.643096924E-1,8.164306641E0
4.476476974E1,1.021728516E0,1.859222412E0,8.554336548E0
4.481476974E1,4.067993164E-2,1.631912231E0,8.788833618E0
4.486476974E1,4.283142090E-1,2.490921021E0,9.647857666E0
4.491476974E1,5.503845215E-2,8.853454590E-1,1.230868530E1
4.496476974E1,9.547424316E-1,1.229904175E0,1.305284119E1
4.501476974E1,1.507415771E-1,1.866455078E-1,1.124388123E1
4.506476974E1,-4.618072510E-1,-1.127014160E0,1.407218933E1
4.511476974E1,1.124572754E-1,1.220397949E-1,7.972885132E0
4.516476974E1,4.785614014E-1,2.727813721E-1,8.106887817E0
4.521476974E1,-1.555328369E-1,8.805541992E-1,7.542175293E0
4.526476974E1,-1.167694092E0,9.188385010E-1,8.142776489E0
4.531476974E1,-2.608184814E-1,1.615158081E0,7.970489502E0
4.536476974E1,-2.608184814E-1,1.196411133E0,1.144726562E1
4.541476974E1,9.786682129E-1,1.213165283E0,1.192103577E1
4.546476974E1,-2.273254395E-1,4.043884277E-1,1.287817383E1
4.551476974E1,1.414154053E0,5.192413330E-1,1.015992737E1
4.556476974E1,-7.322082520E-1,-3.230285645E-1,1.310548401E1
4.561476974E1,7.154541016E-1,0.000000000E0,7.499099731E0
4.566476974E1,7.728881836E-1,4.355010986E-1,9.674179077E0
4.571476974E1,5.144500732E-1,7.417755127E-1,7.121032715E0
4.576476974E1,1.459655762E-1,1.533798218E0,7.616348267E0
4.581476974E1,2.871398926E-1,1.830505371E0,8.666809082E0
4.586476974E1,-1.962127686E-1,2.155929565E0,1.066720581E1
4.591476974E1,1.220336914E0,1.679763794E0,1.237329102E1
4.596476974E1,-5.407714844E-1,1.526626587E0,1.250010681E1
4.601476974E1,2.330612183E0,-1.938171387E-1,1.370608521E1
4.606476974E1,-5.910339355E-1,-7.513427734E-1,1.067437744E1
4.611476974E1,2.679901123E-1,3.995971680E-1,8.628524780E0
4.616476974E1,7.171630859E-3,1.986083984E-1,8.358123779E0
4.621476974E1,-2.249298096E-1,8.159484863E-1,7.398605347E0
4.626476974E1,-6.053771973E-1,1.227523804E0,8.317459106E0
4.631476974E1,-3.588867188E-2,1.055236816E0,9.425323486E0
4.636476974E1,-1.746826172E-1,1.301696777E0,1.133241272E1
4.641476974E1,6.388854980E-1,4.546356201E-1,1.156451416E1
4.646476974E1,-4.522399902E-1,6.340942383E-1,1.241635132E1
4.651476974E1,1.430908203E0,4.546356201E-1,9.726821899E0
4.656476974E1,-1.004943848E-1,-8.805541992E-1,1.335433960E1
4.661476974E1,9.547424316E-1,3.421783447E-1,7.503890991E0
4.666476974E1,8.590240479E-1,5.958099365E-1,8.568695068E0
4.671476974E1,4.402770996E-1,9.643096924E-1,8.841476440E0
4.676476974E1,2.153015137E-2,1.663009644E0,8.195419312E0
4.681476974E1,4.450683594E-1,1.619934082E0,9.815353394E0
4.686476974E1,2.488555908E-1,1.844863892E0,1.011445618E1
4.691476974E1,7.250213623E-1,1.119842529E0,1.291645813E1
4.696476974E1,-7.872314453E-1,1.665405273E0,1.036331177E1
4.701476974E1,1.024124146E0,-3.852386475E-1,1.394776917E1
4.706476974E1,-6.867370605E-1,-4.618072510E-1,9.800994873E0
4.711476974E1,2.871704102E-2,-1.986083984E-1,8.106887817E0
4.716476974E1,-7.171630859E-3,6.508483887E-1,8.398803711E0
4.721476974E1,-3.565368652E-1,7.800598145E-1,7.410568237E0
4.726476974E1,-4.857482910E-1,7.417755127E-1,8.870193481E0
4.731476974E1,8.613586426E-2,1.397415161E0,1.012164307E1
4.736476974E1,-7.177734375E-2,1.122238159E0,1.232064819E1
4.741476974E1,1.138977051E0,8.805541992E-1,1.238764954E1
4.746476974E1,-2.392883301E-1,1.189239502E0,1.056192017E1
4.751476974E1,4.235229492E-1,-3.828582764E-1,1.276571655E1
4.756476974E1,-2.057800293E-1,-3.445739746E-1,9.384643555E0
4.761476974E1,1.057632446E0,3.900299072E-1,9.399002075E0
4.766476974E1,8.542327881E-1,1.055236816E0,6.946365356E0
4.771476974E1,1.244201660E-1,1.368698120E0,7.566101074E0
4.776476974E1,2.703857422E-1,1.921432495E0,9.231506348E0
4.781476974E1,3.158569336E-1,2.246856689E0,9.147766113E0
4.786476974E1,4.115600586E-1,1.268188477E0,1.289492798E1
4.791476974E1,5.742797852E-1,1.062408447E0,1.244746399E1
4.796476974E1,7.800598145E-1,-2.153015137E-2,1.132283020E1
4.801476974E1,-1.076766968E0,-7.800598145E-1,1.316770935E1
4.806476974E1,-4.547119141E-2,-3.302154541E-1,8.370086670E0
4.811476974E1,4.547119141E-2,4.809570312E-1,8.846267700E0
4.816476974E1,4.043884277E-1,7.250213623E-1,6.731002808E0
4.821476974E1,-2.608184814E-1,1.170089722E0,8.307876587E0
4.826476974E1,7.178497314E-1,1.308868408E0,8.260025024E0
4.831476974E1,-2.395629883E-3,1.342376709E0,1.116969299E1
4.836476974E1,6.604156494E-1,7.872314453E-1,1.241635132E1
4.841476974E1,-3.995971680E-1,5.312042236E-1,1.209092712E1
4.846476974E1,1.710861206E0,1.055236816E0,1.040878296E1
4.851476974E1,-5.742797852E-1,-6.149597168E-1,1.265324402E1
4.856476974E1,-3.349304199E-2,1.387786865E-1,8.025527954E0
4.861476974E1,7.728881836E-1,7.346038818E-1,9.300903320E0
4.866476974E1,5.503845215E-2,1.081558228E0,6.989440918E0
4.871476974E1,-2.368927002E-1,1.696517944E0,7.922637939E0
4.876476974E1,7.058868408E-1,1.806579590E0,9.719650269E0
4.881476974E1,2.273254395E-1,2.127212524E0,9.413360596E0
4.886476974E1,7.585296631E-1,1.464401245E0,1.206222534E1
4.891476974E1,1.459655762E-1,1.947753906E0,1.129412842E1
4.896476974E1,1.251449585E0,-6.819610596E-1,1.519920349E1
4.901476974E1,-1.698913574E-1,-2.344970703E-1,9.686141968E0
4.906476974E1,2.488555908E-1,1.100769043E-1,8.786437988E0
4.911476974E1,6.939697266E-2,5.599212646E-1,8.020736694E0
4.916476974E1,-4.547119141E-2,1.186843872E0,7.846069336E0
4.921476974E1,-6.269226074E-1,1.067199707E0,7.759918213E0
4.926476974E1,2.632141113E-1,1.624725342E0,1.003788757E1
4.931476974E1,-4.474639893E-1,8.781585693E-1,1.235893250E1
4.936476974E1,4.737854004E-1,6.316986084E-1,1.162432861E1
4.941476974E1,-6.699829102E-1,9.236297607E-1,1.203111267E1
4.946476974E1,7.633056641E-1,-6.939697266E-2,1.289253235E1
4.951476974E1,7.489471436E-1,-1.292114258E-1,9.678970337E0
4.956476974E1,2.254043579E0,3.589172363E-1,8.843872070E0
4.961476974E1,6.197357178E-1,8.709869385E-1,7.702499390E0
4.966476974E1,1.651000977E-1,1.524230957E0,7.281356812E0
4.971476974E1,2.560272217E-1,1.921432495E0,8.054244995E0
4.976476974E1,1.866455078E-1,1.945358276E0,1.008096313E1
4.981476974E1,4.570312500E-1,1.272979736E0,1.155255127E1
4.986476974E1,-2.440643311E-1,7.369842529E-1,1.356970215E1
4.991476974E1,1.086334229E0,6.077728271E-1,1.039682007E1
4.996476974E1,-5.910339355E-1,-7.226257324E-1,1.386161804E1
5.001476974E1,-2.273254395E-1,1.052856445E-1,7.613967896E0
5.006476974E1,-6.460571289E-2,3.708801270E-1,8.886947632E0
5.011476974E1,-3.038940430E-1,8.733825684E-1,7.453643799E0
5.016476974E1,-3.206329346E-1,1.320831299E0,8.331802368E0
5.021476974E1,-5.670928955E-1,1.371093750E0,8.937194824E0
5.026476974E1,2.847442627E-1,1.495513916E0,1.028434753E1
5.031476974E1,2.536315918E-1,4.953155518E-1,1.258863831E1
5.036476974E1,4.450683594E-1,4.857482910E-1,1.295474243E1
5.041476974E1,9.595184326E-1,7.441711426E-1,1.009053040E1
5.046476974E1,-3.397827148E-1,-2.560272217E-1,1.264367676E1
5.051476974E1,5.120697021E-1,2.153015137E-2,8.817550659E0
5.056476974E1,8.446655273E-1,1.674957275E-1,8.410766602E0
5.061476974E1,4.905242920E-1,1.107879639E0,7.592422485E0
5.066476974E1,-8.853149414E-2,1.794616699E0,6.977478027E0
5.071476974E1,1.124572754E-1,1.701293945E0,9.461227417E0
5.076476974E1,1.722869873E-1,1.672576904E0,9.731613159E0
5.081476974E1,1.244201660E-1,7.848510742E-1,1.392861938E1
5.086476974E1,-9.809875488E-2,1.143768311E0,1.133241272E1
5.091476974E1,-5.024719238E-2,6.963043213E-1,9.468399048E0
5.096476974E1,6.628112793E-1,1.028900146E-1,1.238764954E1
5.101476974E1,6.436767578E-1,2.823486328E-1,9.516250610E0
5.106476974E1,-2.392883301E-1,4.546356201E-1,9.265014648E0
5.111476974E1,4.761657715E-1,1.335189819E0,8.090133667E0
5.116476974E1,-7.226257324E-1,1.540985107E0,8.133209229E0
5.121476974E1,3.278198242E-1,1.232299805E0,9.214767456E0
5.126476974E1,-6.221008301E-2,1.134201050E0,1.162911987E1
5.131476974E1,4.426727295E-1,7.130584717E-1,1.181814575E1
5.136476974E1,2.560272217E-1,1.217941284E0,1.092323303E1
5.141476974E1,7.226257324E-1,5.981445312E-2,1.326580811E1
5.146476974E1,2.895355225E-1,-1.220397949E-1,1.031306458E1
5.151476974E1,1.081558228E0,5.599212646E-1,8.836700439E0
5.156476974E1,6.412811279E-1,1.203582764E0,7.357925415E0
5.161476974E1,-2.440643311E-1,1.584045410E0,6.908081055E0
5.166476974E1,2.464599609E-1,1.600799561E0,8.329421997E0
5.171476974E1,3.924255371E-1,2.029113770E0,1.058824158E1
5.176476974E1,2.488555908E-1,1.385437012E0,1.157408142E1
5.181476974E1,6.077728271E-1,1.584045410E0,1.299063110E1
5.186476974E1,4.474639893E-1,1.201202393E0,1.044946289E1
5.191476974E1,-1.890258789E-1,-1.148529053E-1,1.459382629E1
5.196476974E1,-1.818542480E-1,1.387786865E-1,8.298309326E0
5.201476974E1,-7.171630859E-3,6.293182373E-1,8.965911865E0
5.206476974E1,-1.770629883E-1,9.714813232E-1,6.922439575E0
5.211476974E1,-1.146163940E0,1.014556885E0,8.185852051E0
5.216476974E1,-3.373870850E-1,1.416549683E0,8.030319214E0
5.221476974E1,-2.584228516E-1,1.564910889E0,9.896713257E0
5.226476974E1,6.388854980E-1,8.757781982E-1,1.209332275E1
5.231476974E1,2.823486328E-1,7.609100342E-1,1.196890259E1
5.236476974E1,1.253845215E0,-8.135986328E-2,1.084187317E1
5.241476974E1,5.934143066E-1,-5.407714844E-1,1.462731934E1
5.246476974E1,1.356735229E0,-2.751770020E-1,7.312469482E0
5.251476974E1,8.542327881E-1,7.058868408E-1,9.592819214E0
5.256476974E1,3.110656738E-1,1.246658325E0,6.637695312E0
5.261476974E1,-2.392883301E-1,1.397415161E0,7.922637939E0
5.266476974E1,7.752685547E-1,1.847259521E0,9.901504517E0
5.271476974E1,3.110656738E-1,1.335189819E0,1.069113159E1
5.276476974E1,2.368927002E-1,8.446655273E-1,1.262931824E1
5.281476974E1,-8.111724854E-1,2.100891113E0,1.148315430E1
5.286476974E1,7.968139648E-1,-5.216369629E-1,1.440240479E1
5.291476974E1,-4.474639893E-1,2.656097412E-1,9.525833130E0
5.296476974E1,-2.344970703E-1,2.751770020E-1,7.377075195E0
5.301476974E1,1.962127686E-1,6.652069092E-1,9.229110718E0
5.306476974E1,-3.110656738E-1,8.279113770E-1,7.063613892E0
5.311476974E1,-8.063812256E-1,1.670196533E0,8.307876587E0
5.316476974E1,-2.871398926E-1,1.395019531E0,8.683547974E0
5.321476974E1,3.038940430E-1,1.579269409E0,1.133958435E1
5.326476974E1,1.698913574E-1,8.279113770E-1,1.247378540E1
5.331476974E1,-4.594268799E-1,1.395019531E0,1.233021545E1
5.336476974E1,3.684997559E-1,1.507415771E-1,1.289730835E1
5.341476974E1,3.589172363E-1,1.148529053E-1,9.772293091E0
5.346476974E1,3.206329346E-1,8.135986328E-2,9.006591797E0
5.351476974E1,2.297058105E-1,6.963043213E-1,8.829513550E0
5.356476974E1,5.240325928E-1,1.473983765E0,7.116256714E0
5.361476974E1,-2.895355225E-1,1.201202393E0,8.944366455E0
5.366476974E1,1.031311035E0,2.225326538E0,9.734008789E0
5.371476974E1,1.052856445E-1,1.256225586E0,1.069352722E1
5.376476974E1,4.881286621E-1,1.586441040E0,1.225604248E1
5.381476974E1,-4.067840576E-1,1.342376709E0,1.135873413E1
5.386476974E1,-3.014984131E-1,-7.274169922E-1,1.523988342E1
5.391476974E1,7.417297363E-2,-3.804626465E-1,9.427719116E0
5.396476974E1,4.091796875E-1,1.411743164E-1,7.740783691E0
5.401476974E1,-2.416687012E-1,9.978027344E-1,7.915451050E0
5.406476974E1,-1.244201660E-1,1.170089722E0,7.003799438E0
5.411476974E1,-2.799530029E-1,1.517044067E0,8.544769287E0
5.416476974E1,1.674957275E-1,1.347152710E0,9.437286377E0
5.421476974E1,-2.273254395E-1,1.471588135E0,1.205743408E1
5.426476974E1,3.972015381E-1,6.149597168E-1,1.190429688E1
5.431476974E1,-3.589172363E-1,1.361511230E0,1.146401978E1
5.436476974E1,1.182052612E0,8.901367188E-1,1.108833313E1
5.441476974E1,-2.057800293E-1,-7.537384033E-1,1.134677124E1
5.446476974E1,8.207397461E-1,7.944183350E-1,8.544769287E0
5.451476974E1,2.440643311E-1,1.148559570E0,7.664215088E0
5.456476974E1,1.196289062E-2,1.636688232E0,7.357925415E0
5.461476974E1,-1.124572754E-1,1.509872437E0,8.953948975E0
5.466476974E1,7.417755127E-1,1.818542480E0,9.872787476E0
5.471476974E1,-1.507415771E-1,1.019348145E0,1.211247253E1
5.476476974E1,-5.742797852E-1,1.485946655E0,1.321316528E1
5.481476974E1,9.978027344E-1,-4.785614014E-1,1.162193298E1
5.486476974E1,-6.747741699E-1,-1.890258789E-1,1.299302673E1
5.491476974E1,-4.809570312E-1,-1.124572754E-1,8.618942261E0
5.496476974E1,-4.791259766E-3,-1.363983154E-1,9.779464722E0
5.501476974E1,-7.656860352E-2,8.087768555E-1,6.247665405E0
5.506476974E1,-1.052841187E0,1.021728516E0,8.640487671E0
5.511476974E1,8.997039795E-1,1.820938110E0,9.214767456E0
5.516476974E1,2.057800293E-1,1.012161255E0,1.207418823E1
5.521476974E1,1.552947998E0,1.284942627E0,1.184686279E1
5.526476974E1,7.171630859E-3,6.006011963E-1,1.283270264E1
5.531476974E1,1.969299316E0,7.752685547E-1,1.025802612E1
5.536476974E1,4.547119141E-2,-2.225341797E-1,1.058584595E1
5.541476974E1,1.052841187E0,-2.991027832E-1,8.461029053E0
5.546476974E1,2.727813721E-1,5.934143066E-1,9.942184448E0
5.551476974E1,9.547424316E-1,1.124633789E0,7.343566895E0
5.556476974E1,1.818542480E-1,1.835296631E0,7.941772461E0
5.561476974E1,9.906311035E-1,2.146362305E0,9.262619019E0
5.566476974E1,8.398742676E-1,1.904693604E0,1.104527283E1
5.571476974E1,1.026519775E0,1.155731201E0,1.380180359E1
5.576476974E1,-2.105712891E-1,1.466796875E0,1.114097595E1
5.581476974E1,1.473983765E0,-4.283142090E-1,1.103330994E1
5.586476974E1,5.335998535E-1,-9.762725830E-1,1.224168396E1
5.591476974E1,6.029968262E-1,3.062744141E-1,7.781463623E0
5.596476974E1,7.034912109E-1,7.226257324E-1,7.695312500E0
5.601476974E1,-2.395629883E-3,1.387832642E0,8.394027710E0
5.606476974E1,-1.579284668E-1,1.036087036E0,8.671585083E0
5.611476974E1,3.062744141E-1,1.873580933E0,9.645462036E0
5.616476974E1,5.575256348E-1,7.800598145E-1,1.086341858E1
5.621476974E1,8.590240479E-1,4.665985107E-1,1.259820557E1
5.626476974E1,-2.010040283E-1,1.040878296E0,1.201435852E1
5.631476974E1,1.048049927E0,1.172485352E0,1.103330994E1
5.636476974E1,4.067993164E-2,1.148529053E-1,8.669189453E0
5.641476974E1,1.158126831E0,7.465667725E-1,9.049652100E0
5.646476974E1,6.293182373E-1,1.409378052E0,8.183456421E0
5.651476974E1,3.924255371E-1,1.789825439E0,7.606781006E0
5.656476974E1,4.546356201E-1,1.624725342E0,9.303298950E0
5.661476974E1,4.307098389E-1,1.619934082E0,9.810577393E0
5.666476974E1,3.900299072E-1,5.766754150E-1,1.278005981E1
5.671476974E1,2.679901123E-1,1.768295288E0,1.203590393E1
5.676476974E1,1.959716797E0,-1.579284668E-1,1.329212952E1
5.681476974E1,-4.761657715E-1,-1.555328369E-1,1.105484009E1
5.686476974E1,-8.613586426E-2,5.144500732E-1,8.011169434E0
5.691476974E1,5.024719238E-2,7.657012939E-1,8.724227905E0
5.696476974E1,-9.332275391E-2,1.146163940E0,6.587448120E0
5.701476974E1,-6.101684570E-1,1.289733887E0,8.566299438E0
5.706476974E1,2.153472900E-1,1.698898315E0,9.176467896E0
5.711476974E1,3.517456055E-1,8.661956787E-1,1.160040283E1
5.716476974E1,1.464401245E0,6.460571289E-1,1.208375549E1
5.721476974E1,-1.387786865E-1,1.036087036E0,1.263888550E1
5.726476974E1,3.182449341E0,7.250213623E-1,1.117208862E1
5.731476974E1,-4.307556152E-2,-1.004989624E0,1.132762146E1
5.736476974E1,9.762725830E-1,-5.743408203E-2,7.822143555E0
5.741476974E1,6.245269775E-1,1.119842529E0,8.329421997E0
5.746476974E1,-1.100769043E-1,1.354339600E0,6.869796753E0
5.751476974E1,7.728881836E-1,1.758728027E0,8.494522095E0
5.756476974E1,1.292129517E0,1.832901001E0,1.071266174E1
5.761476974E1,1.064804077E0,8.877410889E-1,1.210768127E1
5.766476974E1,2.033843994E-1,1.225128174E0,1.358644104E1
5.771476974E1,1.581649780E0,8.949127197E-1,1.022932434E1
5.776476974E1,-6.340942383E-1,-3.972015381E-1,1.435453796E1
5.781476974E1,4.594268799E-1,6.340942383E-1,8.070983887E0
5.786476974E1,5.503540039E-1,5.551300049E-1,7.266998291E0
5.791476974E1,3.421783447E-1,9.523468018E-1,8.377273560E0
5.796476974E1,8.375549316E-2,1.533798218E0,7.671386719E0
5.801476974E1,2.273254395E-1,1.521835327E0,9.743576050E0
5.806476974E1,5.718841553E-1,1.194015503E0,1.091845703E1
5.811476974E1,9.451599121E-1,7.561340332E-1,1.244029236E1
5.816476974E1,2.416687012E-1,1.339981079E0,1.111465454E1
5.821476974E1,2.218139648E0,6.747741699E-1,1.205982971E1
5.826476974E1,4.809570312E-1,-2.010040283E-1,1.055712891E1
5.831476974E1,1.067199707E0,7.537384033E-1,7.518249512E0
5.836476974E1,1.938171387E-1,8.997039795E-1,9.322433472E0
5.841476974E1,5.958099365E-1,1.670196533E0,6.752548218E0
5.846476974E1,3.732757568E-1,1.782653809E0,8.898910522E0
5.851476974E1,1.136596680E0,1.835296631E0,1.048056030E1
5.856476974E1,4.091796875E-1,1.232299805E0,1.164587402E1
5.861476974E1,3.062744141E-1,1.136596680E0,1.279441833E1
5.866476974E1,1.371093750E0,8.853149414E-2,1.053080750E1
5.871476974E1,5.958099365E-1,-2.991027832E-1,1.407458496E1
5.876476974E1,1.129409790E0,1.770629883E-1,7.913070679E0
5.881476974E1,4.833526611E-1,1.167694092E0,7.946563721E0
5.886476974E1,1.026519775E0,1.292129517E0,7.695312500E0
5.891476974E1,-7.171630859E-3,1.347152710E0,8.590240479E0
5.896476974E1,7.800598145E-1,1.880752563E0,8.915664673E0
5.901476974E1,1.265808105E0,9.786682129E-1,1.061456299E1
5.906476974E1,2.167892456E0,6.867370605E-1,1.282792664E1
5.911476974E1,8.709869385E-1,1.138977051E0,1.143051147E1
5.916476974E1,2.213363647E0,6.676025391E-1,1.295713806E1
5.921476974E1,8.231353760E-1,-2.273254395E-1,1.059303284E1
5.926476974E1,1.588836670E0,3.469543457E-1,7.384246826E0
5.931476974E1,1.138977051E0,1.536193848E0,7.276580811E0
5.936476974E1,6.652069092E-1,1.560119629E0,6.618545532E0
5.941476974E1,1.026519775E0,1.981262207E0,9.133407593E0
5.946476974E1,1.615158081E0,2.120040894E0,9.552154541E0
5.951476974E1,1.155731201E0,7.848510742E-1,1.269392395E1
5.956476974E1,1.804183960E0,2.045867920E0,1.342613220E1
5.961476974E1,3.156127930E0,-1.004943848E-1,1.302413940E1
5.966476974E1,-8.303070068E-1,-6.053771973E-1,1.221775818E1
5.971476974E1,1.220397949E-1,-2.273254395E-1,8.090133667E0
5.976476974E1,1.241882324E0,7.585296631E-1,8.657226562E0
5.981476974E1,1.004943848E-1,9.355926514E-1,6.312271118E0
5.986476974E1,-3.038940430E-1,1.158126831E0,8.202590942E0
5.991476974E1,7.010955811E-1,1.931015015E0,8.688339233E0
5.996476974E1,7.369842529E-1,9.068756104E-1,1.104287720E1
6.001476974E1,2.160720825E0,6.532440186E-1,1.241157532E1
6.006476974E1,-1.196289062E-2,4.211425781E-1,1.244267273E1
6.011476974E1,2.189437866E0,-3.828430176E-2,1.283509827E1
6.016476974E1,6.412811279E-1,-3.230285645E-1,1.163868713E1
6.021476974E1,2.055435181E0,3.708801270E-1,6.776473999E0
6.026476974E1,1.093521118E0,9.619140625E-1,9.111862183E0
6.031476974E1,-1.052856445E-1,9.858398438E-1,6.932006836E0
6.036476974E1,6.173553467E-1,1.529006958E0,7.972885132E0
6.041476974E1,1.191619873E0,2.287536621E0,9.492324829E0
6.046476974E1,1.380661011E0,6.939239502E-1,1.157168579E1
6.051476974E1,1.923828125E0,4.522399902E-1,1.204307556E1
6.056476974E1,8.494567871E-1,1.217941284E0,1.023170471E1
6.061476974E1,9.212341309E-1,-7.441711426E-1,1.356730652E1
6.066476974E1,6.676025391E-1,-2.775726318E-1,1.002832031E1
6.071476974E1,5.192413330E-1,2.703857422E-1,6.553939819E0
6.076476974E1,7.848510742E-1,9.571228027E-1,8.238494873E0
6.081476974E1,-2.632141113E-2,9.379882812E-1,8.044662476E0
6.086476974E1,7.346038818E-1,1.483551025E0,9.657424927E0
6.091476974E1,1.117446899E0,9.164581299E-1,1.184208679E1
6.096476974E1,1.674972534E0,6.245269775E-1,1.199043274E1
6.101476974E1,2.344970703E-1,4.355010986E-1,1.275373840E1
6.106476974E1,1.909469604E0,-5.886383057E-1,1.274656677E1
6.111476974E1,8.542327881E-1,-6.316986084E-1,1.211724854E1
6.116476974E1,2.399993896E0,-4.785614014E-1,7.243072510E0
6.121476974E1,1.182052612E0,8.470611572E-1,8.276779175E0
6.126476974E1,4.881286621E-1,1.057632446E0,6.582656860E0
6.131476974E1,1.244201660E-1,1.505081177E0,6.917648315E0
6.136476974E1,1.368698120E0,1.342376709E0,9.207580566E0
6.141476974E1,7.106628418E-1,7.872314453E-1,1.189233398E1
6.146476974E1,1.256225586E0,6.556396484E-1,1.233021545E1
6.151476974E1,2.981460571E0,-2.943115234E-1,1.268196106E1
6.156476974E1,9.451599121E-1,-9.714813232E-1,1.463928223E1
6.161476974E1,5.264282227E-1,6.939697266E-2,7.728820801E0
6.166476974E1,-3.972015381E-1,3.493499756E-1,7.372283936E0
6.171476974E1,4.570312500E-1,1.301696777E0,8.331802368E0
6.176476974E1,-3.086700439E-1,1.316055298E0,7.762313843E0
6.181476974E1,1.842498779E-1,2.210968018E0,9.075973511E0
6.186476974E1,4.618072510E-1,1.557723999E0,9.667007446E0
6.191476974E1,1.016952515E0,1.134201050E0,1.161715698E1
6.196476974E1,9.643096924E-1,1.038482666E0,1.196411133E1
6.201476974E1,1.806579590E0,-7.034912109E-1,1.380897522E1
6.206476974E1,7.633056641E-1,6.221313477E-1,1.163868713E1
6.211476974E1,2.151153564E0,6.747741699E-1,8.176269531E0
6.216476974E1,1.476364136E0,9.906311035E-1,8.779266357E0
6.221476974E1,7.010955811E-1,1.194015503E0,7.657028198E0
6.226476974E1,4.019927979E-1,1.636688232E0,8.422729492E0
6.231476974E1,1.667800903E0,2.677566528E0,8.896514893E0
6.236476974E1,9.809875488E-2,2.024322510E0,1.008813477E1
6.241476974E1,4.594268799E-1,2.146362305E0,1.043988037E1
6.246476974E1,-3.661041260E-1,2.029113770E0,1.054277039E1
6.251476974E1,3.111267090E-2,1.277770996E0,1.171525574E1
6.256476974E1,2.392578125E-2,7.609100342E-1,1.138983154E1
6.261476974E1,7.992095947E-1,1.335189819E0,7.791030884E0
6.266476974E1,4.881286621E-1,1.203582764E0,9.580856323E0
6.271476974E1,3.972015381E-1,1.696517944E0,7.276580811E0
6.276476974E1,-8.207397461E-1,1.689331055E0,8.087738037E0
6.281476974E1,7.177734375E-2,1.950149536E0,8.618942261E0
6.286476974E1,5.288085938E-1,2.112869263E0,1.009771729E1
6.291476974E1,1.225128174E0,1.619934082E0,1.125344849E1
6.296476974E1,1.435699463E-1,1.529006958E0,1.218904114E1
6.301476974E1,1.823333740E0,5.048828125E-1,1.445265198E1
6.306476974E1,6.771697998E-1,1.890258789E-1,1.038723755E1
6.311476974E1,1.426116943E0,3.014984131E-1,9.260223389E0
6.316476974E1,5.479583740E-1,7.561340332E-1,8.609375000E0
6.321476974E1,2.632141113E-1,1.402191162E0,7.606781006E0
6.326476974E1,1.986083984E-1,1.641479492E0,8.525634766E0
6.331476974E1,9.092712402E-1,2.313858032E0,9.564117432E0
6.336476974E1,4.474639893E-1,2.057830811E0,1.081317139E1
6.341476974E1,7.728881836E-1,1.170089722E0,1.201675415E1
6.346476974E1,-3.708801270E-1,1.842468262E0,9.329620361E0
6.351476974E1,6.676025391E-1,3.684997559E-1,1.310787964E1
6.356476974E1,4.091796875E-1,5.910339355E-1,9.621536255E0
6.361476974E1,4.498443604E-1,7.992095947E-1,8.480163574E0
6.366476974E1,5.120697021E-1,1.165298462E0,7.747955322E0
6.371476974E1,-2.608184814E-1,1.272979736E0,8.248062134E0
6.376476974E1,1.794586182E-1,1.689331055E0,9.035293579E0
6.381476974E1,4.091796875E-1,1.476364136E0,1.148554993E1
6.386476974E1,1.076766968E0,1.191619873E0,1.158364868E1
6.391476974E1,1.962127686E-1,1.409378052E0,1.292124939E1
6.396476974E1,2.165512085E0,4.881286621E-1,1.131805420E1
6.401476974E1,-9.308013916E-1,-3.349304199E-2,1.238525391E1
6.406476974E1,1.304092407E0,3.230285645E-1,8.810379028E0
6.411476974E1,3.493499756E-1,1.531372070E-1,8.401199341E0
6.416476974E1,2.057800293E-1,5.862426758E-1,7.680953979E0
6.421476974E1,3.278198242E-1,1.318450928E0,7.831710815E0
6.426476974E1,2.871398926E-1,1.639083862E0,8.932403564E0
6.431476974E1,1.371093750E0,2.050643921E0,1.074137878E1
6.436476974E1,1.110275269E0,1.107879639E0,1.283509827E1
6.441476974E1,3.780670166E-1,1.840087891E0,1.078923035E1
6.446476974E1,7.369842529E-1,2.368927002E-1,1.251206970E1
6.451476974E1,2.105712891E-1,-1.722869873E-1,1.068395996E1
6.456476974E1,1.251449585E0,6.221313477E-1,8.616561890E0
6.461476974E1,1.531372070E-1,8.661956787E-1,7.826919556E0
6.466476974E1,7.082824707E-1,1.612762451E0,6.429519653E0
6.471476974E1,-3.110656738E-1,1.026519775E0,7.566101074E0
6.476476974E1,1.521835327E0,1.710861206E0,1.091606140E1
6.481476974E1,9.116668701E-1,5.192413330E-1,1.284945679E1
6.486476974E1,5.790557861E-1,4.474639893E-1,1.355055237E1
6.491476974E1,1.765899658E0,9.140625000E-1,1.124865723E1
6.496476974E1,-2.871398926E-1,4.665985107E-1,1.130130005E1
6.501476974E1,1.545761108E0,2.297058105E-1,7.987243652E0
6.506476974E1,8.303070068E-1,5.503540039E-1,1.002114868E1
6.511476974E1,3.708801270E-1,9.140625000E-1,7.609176636E0
6.516476974E1,2.488555908E-1,1.579269409E0,7.554138184E0
6.521476974E1,8.350982666E-1,1.423736572E0,8.551940918E0
6.526476974E1,1.581649780E0,1.727615356E0,1.026281738E1
6.531476974E1,1.902297974E0,9.020996094E-1,1.359840393E1
6.536476974E1,5.503845215E-2,1.473983765E0,1.077009583E1
6.541476974E1,1.270584106E0,-4.785156250E-2,1.293559265E1
6.546476974E1,8.925170898E-1,-2.392578125E-2,1.118405151E1
6.551476974E1,4.737854004E-1,6.077728271E-1,7.585250854E0
6.556476974E1,5.264282227E-1,9.188385010E-1,6.936798096E0
6.561476974E1,4.689941406E-1,1.404586792E0,6.594619751E0
6.566476974E1,2.919311523E-1,1.057632446E0,9.418151855E0
6.571476974E1,9.571228027E-1,1.473983765E0,9.107086182E0
6.576476974E1,7.752685547E-1,6.029968262E-1,1.162193298E1
6.581476974E1,1.191619873E0,6.101684570E-1,1.235653687E1
6.586476974E1,5.001068115E-1,1.337585449E0,1.088973999E1
6.591476974E1,9.547424316E-1,3.086700439E-1,1.242831421E1
6.596476974E1,7.992095947E-1,-2.177429199E-1,9.836898804E0
6.601476974E1,7.824554443E-1,1.770629883E-1,9.506683350E0
6.606476974E1,5.359954834E-1,8.542327881E-1,7.042083740E0
6.611476974E1,5.072784424E-1,1.308868408E0,7.869995117E0
6.616476974E1,5.503540039E-1,5.001068115E-1,8.705093384E0
6.621476974E1,5.383911133E-1,1.777862549E0,1.077009583E1
6.626476974E1,9.188385010E-1,1.485946655E0,1.141615295E1
6.631476974E1,4.474639893E-1,1.088729858E0,1.255514526E1
6.636476974E1,1.842498779E-1,1.203582764E0,9.889541626E0
6.641476974E1,1.100769043E-1,-5.335998535E-1,1.379223633E1
6.646476974E1,7.298126221E-1,-5.264282227E-2,9.705291748E0
6.651476974E1,3.134613037E-1,5.288085938E-1,8.970687866E0
6.656476974E1,2.584228516E-1,1.050445557E0,6.905685425E0
6.661476974E1,3.014984131E-1,1.258621216E0,7.223937988E0
6.666476974E1,1.172485352E-1,1.196411133E0,9.427719116E0
6.671476974E1,8.494567871E-1,1.225128174E0,1.016471863E1
6.676476974E1,7.322082520E-1,5.288085938E-1,1.306002808E1
6.681476974E1,2.273254395E-1,1.378265381E0,1.155255127E1
6.686476974E1,5.479583740E-1,-1.866455078E-1,1.299063110E1
6.691476974E1,-2.488555908E-1,-9.834442139E-1,1.157168579E1
6.696476974E1,1.033706665E0,-3.230285645E-1,8.331802368E0
6.701476974E1,-4.498443604E-1,4.450683594E-1,8.788833618E0
6.706476974E1,-2.991027832E-1,1.287338257E0,6.575469971E0
6.711476974E1,3.349304199E-2,1.641479492E0,9.370300293E0
6.716476974E1,2.177429199E-1,1.339981079E0,9.071197510E0
6.721476974E1,4.618072510E-1,1.232299805E0,1.200000000E1
6.726476974E1,7.776641846E-1,9.571228027E-1,1.338066101E1
6.731476974E1,1.753936768E0,-1.124572754E-1,1.303370667E1
6.736476974E1,-7.226257324E-1,-2.919311523E-1,1.188037109E1
6.741476974E1,4.259185791E-1,2.297058105E-1,7.757537842E0
6.746476974E1,2.081756592E-1,7.058868408E-1,8.626129150E0
6.751476974E1,2.273254395E-1,9.930267334E-1,6.137588501E0
6.756476974E1,-1.052841187E0,1.368698120E0,7.932205200E0
6.761476974E1,2.057800293E-1,1.792221069E0,8.760131836E0
6.766476974E1,6.460571289E-1,8.470611572E-1,1.108833313E1
6.771476974E1,1.038482666E0,6.460571289E-2,1.317727661E1
6.776476974E1,1.363983154E-1,9.523468018E-1,1.328016663E1
6.781476974E1,1.040878296E0,8.207397461E-1,1.224407959E1
6.786476974E1,-3.828582764E-1,2.129669189E-1,9.394226074E0
6.791476974E1,6.819610596E-1,5.407714844E-1,8.858230591E0
6.796476974E1,8.613586426E-2,7.393798828E-1,8.745773315E0
6.801476974E1,-1.363983154E-1,1.447662354E0,7.199996948E0
6.806476974E1,-1.268157959E-1,1.775466919E0,8.537597656E0
6.811476974E1,2.847442627E-1,1.947753906E0,9.609573364E0
6.816476974E1,6.269226074E-1,1.354339600E0,1.130130005E1
6.821476974E1,3.134613037E-1,1.067199707E0,1.322035217E1
6.826476974E1,1.107879639E0,4.713897705E-1,1.008813477E1
6.831476974E1,-1.387786865E-1,-1.914978027E-2,1.412004089E1
6.836476974E1,2.249298096E-1,3.780670166E-1,6.719039917E0
6.841476974E1,9.809875488E-2,7.489471436E-1,1.025564575E1
6.846476974E1,4.570312500E-1,1.055236816E0,6.309875488E0
6.851476974E1,-8.039855957E-1,1.162918091E0,7.556533813E0
6.856476974E1,1.674957275E-1,1.347152710E0,8.571090698E0
6.861476974E1,1.507415771E-1,1.476364136E0,1.096391296E1
6.866476974E1,7.776641846E-1,8.733825684E-1,1.349073792E1
6.871476974E1,5.001068115E-1,8.829498291E-1,1.359362793E1
6.876476974E1,1.588836670E0,7.154541016E-1,1.084666443E1
6.881476974E1,-6.173553467E-1,-3.158569336E-1,1.174397278E1
6.886476974E1,1.435852051E-2,1.842498779E-1,8.717056274E0
6.891476974E1,7.393798828E-1,8.087768555E-1,7.271789551E0
6.896476974E1,3.134613037E-1,9.595184326E-1,6.620941162E0
6.901476974E1,2.775726318E-1,1.505081177E0,8.059020996E0
6.906476974E1,4.761657715E-1,1.430908203E0,1.018145752E1
6.911476974E1,5.431671143E-1,1.871185303E0,1.003071594E1
6.916476974E1,7.944183350E-1,1.033706665E0,1.510827637E1
6.921476974E1,-3.852386475E-1,1.643875122E0,1.014077759E1
6.926476974E1,1.363983154E-1,9.882354736E-1,1.099740601E1
6.931476974E1,6.819610596E-1,2.297058105E-1,9.987640381E0
6.936476974E1,7.130584717E-1,-4.139556885E-1,1.015992737E1
6.941476974E1,-5.192413330E-1,2.153472900E-1,9.310470581E0
6.946476974E1,-1.651000977E-1,1.071990967E0,6.441482544E0
6.951476974E1,-1.347152710E0,1.198806763E0,8.286346436E0
6.956476974E1,1.004943848E-1,1.588836670E0,8.224136353E0
6.961476974E1,-5.958099365E-1,8.542327881E-1,1.228474426E1
6.966476974E1,5.790557861E-1,7.920227051E-1,1.224885559E1
6.971476974E1,-1.746826172E-1,1.359130859E0,1.196650696E1
6.976476974E1,1.048049927E0,-4.307556152E-2,1.422772217E1
6.981476974E1,-5.407714844E-1,-7.177734375E-2,1.030589294E1
6.986476974E1,1.344772339E0,1.722869873E-1,7.824523926E0
6.991476974E1,-2.967071533E-1,1.000198364E0,7.635498047E0
6.996476974E1,-3.014984131E-1,9.714813232E-1,6.764511108E0
7.001476974E1,-4.259185791E-1,1.284942627E0,8.513656616E0
7.006476974E1,2.153472900E-1,1.904693604E0,9.719650269E0
7.011476974E1,7.656860352E-2,1.536193848E0,1.175593567E1
7.016476974E1,7.082824707E-1,9.044799805E-1,1.308634949E1
7.021476974E1,5.072784424E-1,5.838470459E-1,1.085623169E1
7.026476974E1,-4.139556885E-1,-3.517456055E-1,1.338066101E1
7.031476974E1,-8.135986328E-2,7.417297363E-2,8.748153687E0
7.036476974E1,5.814514160E-1,4.211425781E-1,8.542373657E0
7.041476974E1,-7.322082520E-1,5.934143066E-1,8.415557861E0
7.046476974E1,5.024719238E-2,1.674972534E0,6.795623779E0
7.051476974E1,-1.055236816E0,1.454833984E0,8.927627563E0
7.056476974E1,4.737854004E-1,1.450057983E0,1.096870422E1
7.061476974E1,3.589172363E-1,3.684997559E-1,1.340220642E1
7.066476974E1,3.421783447E-1,1.014556885E0,1.203590393E1
7.071476974E1,1.607971191E0,6.676025391E-1,1.063369751E1
7.076476974E1,1.244201660E-1,-1.627044678E-1,1.113619995E1
7.081476974E1,9.020996094E-1,2.081756592E-1,8.676376343E0
7.086476974E1,7.177734375E-2,4.426727295E-1,8.307876587E0
7.091476974E1,3.828430176E-2,1.454833984E0,6.888931274E0
7.096476974E1,-7.728881836E-1,1.462020874E0,8.303100586E0
7.101476974E1,5.623168945E-1,1.543365479E0,1.019581604E1
7.106476974E1,3.828430176E-2,1.579269409E0,1.090409851E1
7.111476974E1,9.547424316E-1,1.045669556E0,1.345722961E1
7.116476974E1,-6.101684570E-1,1.416549683E0,1.084187317E1
7.121476974E1,-5.312042236E-1,4.426727295E-1,1.323709106E1
7.126476974E1,-2.344970703E-1,6.700134277E-2,9.662216187E0
7.131476974E1,-2.392578125E-2,5.670928955E-1,7.271789551E0
7.136476974E1,2.321014404E-1,1.182052612E0,8.372482300E0
7.141476974E1,-4.689941406E-1,1.160522461E0,7.362716675E0
7.146476974E1,-3.828582764E-1,1.306488037E0,8.568695068E0
7.151476974E1,1.076812744E-1,1.397415161E0,1.068156433E1
7.156476974E1,4.402770996E-1,9.068756104E-1,1.196171570E1
7.161476974E1,-2.440643311E-1,1.107879639E0,1.167936707E1
7.166476974E1,1.603195190E0,1.086334229E0,1.151187134E1
7.171476974E1,-1.842498779E-1,-3.780670166E-1,1.456990051E1
7.176476974E1,9.403839111E-1,7.346038818E-1,7.243072510E0
7.181476974E1,5.216369629E-1,9.930267334E-1,7.628311157E0
7.186476974E1,7.369842529E-1,1.397415161E0,6.994216919E0
7.191476974E1,-6.173553467E-1,1.227523804E0,8.118850708E0
7.196476974E1,6.221313477E-1,2.005187988E0,9.047256470E0
7.201476974E1,-7.417297363E-2,1.658233643E0,1.104287720E1
7.206476974E1,3.397827148E-1,1.009765625E0,1.438804626E1
7.211476974E1,-4.259185791E-1,1.730010986E0,1.133480835E1
7.216476974E1,-4.547119141E-2,-7.896423340E-2,1.338305664E1
7.221476974E1,-3.038940430E-1,-1.411743164E-1,9.066406250E0
7.226476974E1,3.397827148E-1,5.981445312E-2,8.422729492E0
7.231476974E1,7.896423340E-2,8.135528564E-1,8.621337891E0
7.236476974E1,-1.722869873E-1,1.490722656E0,7.487136841E0
7.241476974E1,2.368927002E-1,1.648651123E0,7.886749268E0
7.246476974E1,0.000000000E0,1.416549683E0,1.088017273E1
7.251476974E1,6.819610596E-1,8.973083496E-1,1.245942688E1
7.256476974E1,-5.312042236E-1,5.335998535E-1,1.306719971E1
7.261476974E1,1.251449585E0,1.971679688E0,1.043031311E1
7.266476974E1,-2.368927002E-1,-1.172485352E-1,1.289253235E1
7.271476974E1,4.450683594E-1,2.775726318E-1,8.822341919E0
7.276476974E1,1.198806763E0,7.561340332E-1,7.707275391E0
7.281476974E1,-6.986999512E-1,1.136596680E0,7.836486816E0
7.286476974E1,-4.067993164E-2,1.787445068E0,7.410568237E0
7.291476974E1,-5.862426758E-1,1.739578247E0,9.394226074E0
7.296476974E1,5.862426758E-1,1.835296631E0,9.566513062E0
7.301476974E1,-9.809875488E-2,5.718841553E-1,1.333520508E1
7.306476974E1,6.053771973E-1,2.096115112E0,1.101895142E1
7.311476974E1,-9.116668701E-1,-1.220397949E-1,1.512023926E1
7.316476974E1,-2.512512207E-1,4.067840576E-1,9.686141968E0
7.321476974E1,-4.043884277E-1,8.422698975E-1,8.736190796E0
7.326476974E1,1.579284668E-1,1.225128174E0,7.006179810E0
7.331476974E1,-6.580200195E-1,1.227523804E0,6.982254028E0
7.336476974E1,8.613586426E-2,1.540985107E0,8.377273560E0
7.341476974E1,-5.503845215E-2,1.354339600E0,1.083709717E1
7.346476974E1,6.484527588E-1,1.146163940E0,1.201435852E1
7.351476974E1,4.283142090E-1,6.891326904E-1,1.388554382E1
7.356476974E1,1.457229614E0,1.966903687E0,9.944564819E0
7.361476974E1,-3.014984131E-1,5.766754150E-1,1.185882568E1
7.366476974E1,2.919311523E-1,1.076812744E-1,8.666809082E0
7.371476974E1,1.383056641E0,1.158126831E0,7.286148071E0
7.376476974E1,2.799530029E-1,1.004989624E0,9.023330688E0
7.381476974E1,7.896270752E-1,1.636688232E0,7.202392578E0
7.386476974E1,-1.842498779E-1,2.041076660E0,8.434707642E0
7.391476974E1,1.323226929E0,1.933395386E0,9.963714600E0
7.396476974E1,5.934143066E-1,1.311264038E0,1.406739807E1
7.401476974E1,6.484527588E-1,2.155929565E0,1.186361694E1
7.406476974E1,1.569686890E0,-6.532440186E-1,1.536431885E1
7.411476974E1,-1.531372070E-1,3.206329346E-1,9.911071777E0
7.416476974E1,-2.033843994E-1,7.178497314E-1,7.566101074E0
7.421476974E1,4.761657715E-1,1.361511230E0,7.728820801E0
7.426476974E1,2.703857422E-1,1.366302490E0,7.094726562E0
7.431476974E1,-1.148529053E-1,1.763504028E0,8.243270874E0
7.436476974E1,3.397827148E-1,1.672576904E0,9.906280518E0
7.441476974E1,7.513427734E-1,1.179656982E0,1.227996826E1
7.446476974E1,9.044799805E-1,9.547424316E-1,1.258863831E1
7.451476974E1,4.307556152E-2,1.873580933E0,1.041595459E1
7.456476974E1,1.567306519E0,9.092712402E-1,1.164108276E1
7.461476974E1,2.010040283E-1,8.375549316E-2,9.997207642E0
7.466476974E1,1.672576904E0,8.303070068E-1,7.922637939E0
7.471476974E1,5.910339355E-1,1.756332397E0,8.322235107E0
7.476476974E1,1.603240967E-1,1.794616699E0,7.010971069E0
7.481476974E1,5.455627441E-1,2.163116455E0,8.779266357E0
7.486476974E1,5.790557861E-1,1.797012329E0,1.025564575E1
7.491476974E1,7.968139648E-1,1.225128174E0,1.401237488E1
7.496476974E1,4.737854004E-1,1.564910889E0,1.206700134E1
7.501476974E1,1.387832642E0,6.149597168E-1,1.161476135E1
7.506476974E1,1.483612061E-1,-5.694885254E-1,1.323709106E1
7.511476974E1,-1.268157959E-1,4.785156250E-2,7.858032227E0
7.516476974E1,-2.395629883E-3,6.340942383E-1,7.563705444E0
7.521476974E1,8.375549316E-2,1.395019531E0,6.876968384E0
7.526476974E1,3.325958252E-1,1.813766479E0,7.570892334E0
7.531476974E1,2.488555908E-1,1.586441040E0,9.432510376E0
7.536476974E1,9.020996094E-1,1.060012817E0,1.161955261E1
7.541476974E1,1.031311035E0,8.661956787E-1,1.281117249E1
7.546476974E1,2.201385498E-1,1.718048096E0,1.210289001E1
7.551476974E1,2.306686401E0,6.388854980E-1,1.242114258E1
7.556476974E1,7.776641846E-1,-3.134613037E-1,1.140419006E1
7.561476974E1,1.502685547E0,4.833526611E-1,8.063812256E0
7.566476974E1,8.398742676E-1,1.203582764E0,7.951354980E0
7.571476974E1,5.503540039E-1,1.682159424E0,6.455841064E0
7.576476974E1,2.632141113E-1,1.875976562E0,7.503890991E0
7.581476974E1,5.120697021E-1,2.043472290E0,9.413360596E0
7.586476974E1,5.766754150E-1,1.258621216E0,1.201196289E1
7.591476974E1,5.623168945E-1,1.196411133E0,1.412483215E1
7.596476974E1,2.579467773E0,7.800598145E-1,1.147598267E1
7.601476974E1,-7.800598145E-1,-6.460571289E-2,1.406739807E1
7.606476974E1,-2.153015137E-2,7.226257324E-1,8.999404907E0
7.611476974E1,-3.972015381E-1,9.547424316E-1,7.448852539E0
7.616476974E1,4.594268799E-1,1.464401245E0,6.649658203E0
7.621476974E1,1.052856445E-1,1.763504028E0,7.716857910E0
7.626476974E1,4.474639893E-1,1.517044067E0,8.027923584E0
7.631476974E1,1.490722656E0,2.000396729E0,1.038963318E1
7.636476974E1,1.251449585E0,1.239486694E0,1.185643005E1
7.641476974E1,9.284210205E-1,2.321044922E0,1.206700134E1
7.646476974E1,2.833099365E0,6.963043213E-1,1.123429871E1
7.651476974E1,6.436767578E-1,4.187469482E-1,1.310070801E1
7.656476974E1,1.521835327E0,1.033706665E0,9.030517578E0
7.661476974E1,2.919311523E-1,1.210769653E0,9.339187622E0
7.666476974E1,4.791259766E-3,1.909469604E0,6.288345337E0
7.671476974E1,-9.571838379E-2,2.519638062E0,7.032501221E0
7.676476974E1,2.871398926E-1,2.818740845E0,8.044662476E0
7.681476974E1,5.982055664E-1,2.931213379E0,9.824935913E0
7.686476974E1,5.455627441E-1,1.919036865E0,1.291645813E1
7.691476974E1,6.221313477E-1,1.627120972E0,1.110987854E1
7.696476974E1,5.551300049E-1,-1.818542480E-1,1.541456604E1
7.701476974E1,1.268157959E-1,4.139556885E-1,9.473190308E0
7.706476974E1,-5.048828125E-1,9.427795410E-1,7.791030884E0
7.711476974E1,-2.584228516E-1,1.158126831E0,7.922637939E0
7.716476974E1,-3.661041260E-1,1.596008301E0,7.781463623E0
7.721476974E1,2.010040283E-1,1.890335083E0,8.621337891E0
7.726476974E1,1.435852051E-2,1.933395386E0,9.944564819E0
7.731476974E1,8.135528564E-1,1.698898315E0,1.180857849E1
7.736476974E1,6.795654297E-1,1.351943970E0,1.324667358E1
7.741476974E1,1.648651123E0,1.253845215E0,1.078923035E1
7.746476974E1,3.158569336E-1,2.177429199E-1,1.235893250E1
7.751476974E1,1.036087036E0,2.847442627E-1,8.858230591E0
7.756476974E1,9.020996094E-1,4.785614014E-1,8.245666504E0
7.761476974E1,-9.092712402E-2,1.196411133E0,8.015960693E0
7.766476974E1,-2.201385498E-1,1.859222412E0,7.463211060E0
7.771476974E1,-9.332275391E-2,1.773086548E0,9.489929199E0
7.776476974E1,4.833526611E-1,2.354537964E0,9.992431641E0
7.781476974E1,-3.182525635E-1,1.256225586E0,1.283749390E1
7.786476974E1,-3.804626465E-1,1.753936768E0,1.222732544E1
7.791476974E1,1.179656982E0,2.991027832E-1,1.260539246E1
7.796476974E1,-9.906311035E-1,9.567260742E-3,1.160040283E1
7.801476974E1,-2.799530029E-1,-2.010040283E-1,8.994613647E0
7.806476974E1,-3.158569336E-1,4.474639893E-1,8.315063477E0
7.811476974E1,1.698913574E-1,1.091125488E0,6.709472656E0
7.816476974E1,-5.455627441E-1,1.383056641E0,7.867599487E0
7.821476974E1,3.349304199E-2,1.596008301E0,9.387039185E0
7.826476974E1,-9.092712402E-2,1.198806763E0,1.151426697E1
7.831476974E1,7.896270752E-1,7.896270752E-1,1.234936523E1
7.836476974E1,-3.828582764E-1,1.045669556E0,1.273220825E1
7.841476974E1,1.552947998E0,1.261016846E0,1.057148743E1
7.846476974E1,-7.417755127E-1,-6.460571289E-1,1.005464172E1
7.851476974E1,1.052841187E0,4.235229492E-1,9.035293579E0
7.856476974E1,-2.368927002E-1,6.508483887E-1,8.958724976E0
7.861476974E1,-6.867370605E-1,1.127014160E0,7.625930786E0
7.866476974E1,-5.168457031E-1,1.545761108E0,8.860626221E0
7.871476974E1,-4.689941406E-1,1.450057983E0,9.377471924E0
7.876476974E1,3.302154541E-1,1.469192505E0,1.189233398E1
7.881476974E1,7.393798828E-1,9.212341309E-1,1.320120239E1
7.886476974E1,-1.397415161E0,1.698898315E0,9.439682007E0
7.891476974E1,-2.871398926E-1,3.541412354E-1,1.252403259E1
7.896476974E1,-2.081756592E-1,-4.043884277E-1,1.082273865E1
7.901476974E1,2.416687012E-1,3.445739746E-1,7.925033569E0
7.906476974E1,1.914215088E-1,7.609100342E-1,6.065811157E0
7.911476974E1,6.077728271E-1,1.162918091E0,8.568695068E0
7.916476974E1,8.135986328E-2,1.205978394E0,9.628723145E0
7.921476974E1,-1.507415771E-1,1.658233643E0,1.062413025E1
7.926476974E1,3.158569336E-1,1.131805420E0,1.154058838E1
7.931476974E1,6.460571289E-1,6.245269775E-1,1.368215942E1
7.936476974E1,8.709869385E-1,2.117645264E0,1.101176453E1
7.941476974E1,4.450683594E-1,5.790557861E-1,1.218185425E1
7.946476974E1,5.647125244E-1,-2.464599609E-1,1.052363586E1
7.951476974E1,4.618072510E-1,5.312042236E-1,8.970687866E0
7.956476974E1,-3.206329346E-1,1.205978394E0,6.848251343E0
7.961476974E1,-5.743408203E-2,1.715652466E0,6.881759644E0
7.966476974E1,-3.206329346E-1,1.612762451E0,8.678771973E0
7.971476974E1,7.202453613E-1,2.086547852E0,9.822540283E0
7.976476974E1,4.450683594E-1,1.390228271E0,1.260299683E1
7.981476974E1,-9.567260742E-3,2.210968018E0,1.181336975E1
7.986476974E1,9.236297607E-1,1.675415039E-2,1.268435669E1
7.991476974E1,-1.002593994E0,2.368927002E-1,1.107876587E1
7.996476974E1,4.570312500E-1,9.954071045E-1,8.252853394E0
8.001476974E1,-3.588867188E-2,8.661956787E-1,8.563919067E0
8.006476974E1,6.125640869E-1,1.473983765E0,7.221542358E0
8.011476974E1,-5.264282227E-1,1.375869751E0,7.855636597E0
8.016476974E1,6.029968262E-1,1.624725342E0,7.898712158E0
8.021476974E1,4.067993164E-2,1.012161255E0,1.111465454E1
8.026476974E1,1.555328369E0,7.178497314E-1,1.247618103E1
8.031476974E1,3.349304199E-2,1.462020874E0,1.189710999E1
8.036476974E1,1.332809448E0,7.633056641E-1,1.346441650E1
8.041476974E1,4.450683594E-1,2.321014404E-1,1.082513428E1
8.046476974E1,1.184448242E0,5.288085938E-1,9.035293579E0
8.051476974E1,5.742797852E-1,1.227523804E0,8.269592285E0
8.056476974E1,5.862426758E-1,1.552947998E0,6.589828491E0
8.061476974E1,-5.264282227E-2,1.493118286E0,7.874786377E0
8.066476974E1,1.440475464E0,2.294723511E0,8.874984741E0
8.071476974E1,3.541412354E-1,1.720443726E0,1.210768127E1
8.076476974E1,1.406982422E0,1.296905518E0,1.255992126E1
8.081476974E1,5.814514160E-1,8.781585693E-1,1.030589294E1
8.086476974E1,1.579284668E-1,-2.775726318E-1,1.494796753E1
8.091476974E1,1.196441650E-1,2.010040283E-1,9.473190308E0
8.096476974E1,1.074371338E0,1.088729858E0,7.539779663E0
8.101476974E1,3.302154541E-1,1.313659668E0,6.896118164E0
8.106476974E1,-4.642028809E-1,1.390228271E0,7.558929443E0
8.111476974E1,-8.375549316E-2,1.509872437E0,8.705093384E0
8.116476974E1,5.599212646E-1,1.007385254E0,1.057627869E1
8.121476974E1,1.655838013E0,7.322082520E-1,1.261256409E1
8.126476974E1,4.547119141E-2,1.091125488E0,1.252882385E1
8.131476974E1,1.706085205E0,2.991027832E-1,1.232542419E1
8.136476974E1,-3.493499756E-1,-2.871398926E-1,1.223211670E1
8.141476974E1,1.160522461E0,1.794586182E-1,8.583053589E0
8.146476974E1,2.440643311E-1,6.628112793E-1,7.903488159E0
8.151476974E1,-2.368927002E-1,7.393798828E-1,6.774078369E0
8.156476974E1,2.177429199E-1,1.423736572E0,8.324630737E0
8.161476974E1,3.325958252E-1,1.868789673E0,9.793823242E0
8.166476974E1,1.134201050E0,1.686935425E0,1.091606140E1
8.171476974E1,8.183441162E-1,1.098312378E0,1.419183350E1
8.176476974E1,-1.986083984E-1,1.875976562E0,1.054995728E1
8.181476974E1,9.690856934E-1,2.105712891E-1,1.300019836E1
8.186476974E1,4.331054688E-1,6.891326904E-1,9.351150513E0
8.191476974E1,4.450683594E-1,9.571838379E-2,9.040084839E0
8.196476974E1,-1.914215088E-1,3.732757568E-1,7.733596802E0
8.201476974E1,-2.799530029E-1,1.344772339E0,7.384246826E0
8.206476974E1,-6.149597168E-1,1.603195190E0,7.310073853E0
8.211476974E1,1.627044678E-1,1.959716797E0,9.516250610E0
8.216476974E1,2.344970703E-1,1.552947998E0,1.150230408E1
8.221476974E1,8.781585693E-1,1.071990967E0,1.254556274E1
8.226476974E1,1.842498779E-1,2.230117798E0,1.107876587E1
8.231476974E1,1.938186646E0,7.154541016E-1,1.316052246E1
8.236476974E1,2.344970703E-1,-1.435852051E-2,1.077966309E1
8.241476974E1,1.648651123E0,6.053771973E-1,7.915451050E0
8.246476974E1,1.196441650E-1,1.488342285E0,7.611572266E0
8.251476974E1,-1.292114258E-1,1.378265381E0,7.566101074E0
8.256476974E1,1.435852051E-2,1.555328369E0,8.377273560E0
8.261476974E1,5.527496338E-1,1.852050781E0,9.712463379E0
8.266476974E1,2.129669189E-1,1.186843872E0,1.184686279E1
8.271476974E1,7.561340332E-1,1.205978394E0,1.345245361E1
8.276476974E1,-5.048828125E-1,1.830505371E0,9.815353394E0
8.281476974E1,2.010040283E-1,6.245269775E-1,1.392861938E1
8.286476974E1,-6.939697266E-2,1.004943848E-1,1.019104004E1
8.291476974E1,1.086334229E0,1.052856445E-1,7.494323730E0
8.296476974E1,6.915283203E-1,1.184448242E0,8.815155029E0
8.301476974E1,4.791259766E-3,8.398742676E-1,6.836288452E0
8.306476974E1,9.571838379E-2,1.421340942E0,8.274383545E0
8.311476974E1,7.417755127E-1,1.404586792E0,8.791229248E0
8.316476974E1,9.212341309E-1,1.395019531E0,1.175833130E1
8.321476974E1,1.150955200E0,1.191619873E0,1.300978088E1
8.326476974E1,2.000396729E0,7.848510742E-1,1.123190308E1
8.331476974E1,9.547424316E-1,3.493499756E-1,1.435693359E1
8.336476974E1,1.493118286E0,2.536315918E-1,8.224136353E0
8.341476974E1,1.713256836E0,2.703857422E-1,8.528015137E0
8.346476974E1,1.138977051E0,1.122238159E0,8.980270386E0
8.351476974E1,3.708801270E-1,1.040878296E0,7.499099731E0
8.356476974E1,1.426116943E0,1.552947998E0,8.370086670E0
8.361476974E1,1.055236816E0,2.067398071E0,9.590438843E0
8.366476974E1,9.284210205E-1,1.000198364E0,1.220817566E1
8.371476974E1,6.986999512E-1,1.581649780E0,1.177986145E1
8.376476974E1,2.758926392E0,-7.202453613E-1,1.168655396E1
8.381476974E1,3.780670166E-1,2.321014404E-1,1.223689270E1
8.386476974E1,1.340026855E-1,-3.588867188E-2,8.135604858E0
8.391476974E1,1.579284668E-1,5.838470459E-1,9.176467896E0
8.396476974E1,3.756713867E-1,1.115051270E0,7.841278076E0
8.401476974E1,-7.154541016E-1,1.234695435E0,7.948959351E0
8.406476974E1,9.236297607E-1,1.701293945E0,8.044662476E0
8.411476974E1,4.953155518E-1,7.657012939E-1,1.069592285E1
8.416476974E1,1.150955200E0,9.906311035E-1,1.241635132E1
8.421476974E1,6.269226074E-1,1.172485352E0,1.236610413E1
8.426476974E1,2.670394897E0,7.633056641E-1,1.183250427E1
8.431476974E1,9.643096924E-1,3.182525635E-1,1.253599548E1
8.436476974E1,1.062408447E0,2.991027832E-1,7.604385376E0
8.441476974E1,2.009963989E0,1.069595337E0,8.492126465E0
8.446476974E1,4.737854004E-1,1.529006958E0,7.305282593E0
8.451476974E1,2.871398926E-1,1.615158081E0,7.546966553E0
8.456476974E1,9.810638428E-1,2.392822266E0,9.499511719E0
8.461476974E1,3.469543457E-1,1.797012329E0,1.013600159E1
8.466476974E1,1.131805420E0,2.033905029E0,1.229910278E1
8.471476974E1,2.871704102E-2,2.378463745E0,1.037767029E1
8.476476974E1,1.299301147E0,2.225341797E-1,1.367976379E1
8.481476974E1,2.536315918E-1,4.043884277E-1,1.026281738E1
8.486476974E1,8.566284180E-1,1.019348145E0,7.219146729E0
8.491476974E1,5.072784424E-1,1.000198364E0,8.846267700E0
8.496476974E1,5.790557861E-1,1.569686890E0,7.350753784E0
8.501476974E1,-4.785156250E-2,1.931015015E0,8.659622192E0
8.506476974E1,4.570312500E-1,1.727615356E0,1.015036011E1
8.511476974E1,7.800598145E-1,1.335189819E0,1.162672424E1
8.516476974E1,1.284942627E0,8.853454590E-1,1.234457397E1
8.521476974E1,1.138977051E0,9.667053223E-1,1.135873413E1
8.526476974E1,1.033706665E0,-1.316070557E-1,1.388316345E1
8.531476974E1,1.016952515E0,-2.177429199E-1,9.927825928E0
8.536476974E1,1.540985107E0,5.144500732E-1,8.011169434E0
8.541476974E1,5.647125244E-1,1.292129517E0,7.058822632E0
8.546476974E1,6.460571289E-2,1.158126831E0,7.580459595E0
8.551476974E1,6.460571289E-1,1.423736572E0,9.470794678E0
8.556476974E1,5.383911133E-1,1.919036865E0,9.255432129E0
8.561476974E1,4.785614014E-1,1.524230957E0,1.191625977E1
8.566476974E1,1.241882324E0,1.320831299E0,1.305046082E1
8.571476974E1,-7.968139648E-1,1.397415161E0,1.034178162E1
8.576476974E1,5.910339355E-1,1.174880981E0,1.150468445E1
8.581476974E1,2.991027832E-1,5.766754150E-1,9.765106201E0
8.586476974E1,1.007385254E0,4.235229492E-1,9.454040527E0
8.591476974E1,2.395629883E-3,1.021728516E0,7.683349609E0
8.596476974E1,3.469543457E-1,1.895111084E0,7.298110962E0
8.601476974E1,-2.488555908E-1,1.387832642E0,8.403594971E0
8.606476974E1,4.522399902E-1,1.643875122E0,1.024606323E1
8.611476974E1,6.316986084E-1,1.165298462E0,1.119601440E1
8.616476974E1,-5.503845215E-2,9.212341309E-1,1.298106384E1
8.621476974E1,9.858398438E-1,2.105682373E0,1.186839294E1
8.626476974E1,1.160522461E0,6.293182373E-1,1.265324402E1
8.631476974E1,4.331054688E-1,-2.153015137E-2,9.867996216E0
8.636476974E1,1.476364136E0,6.436767578E-1,8.090133667E0
8.641476974E1,2.584228516E-1,1.239486694E0,7.362716675E0
8.646476974E1,1.340026855E-1,1.296905518E0,6.084945679E0
8.651476974E1,-2.632141113E-2,1.840087891E0,8.848663330E0
8.656476974E1,4.785614014E-1,2.493316650E0,9.044876099E0
8.661476974E1,0.000000000E0,1.947753906E0,1.255035400E1
8.666476974E1,6.412811279E-1,2.244461060E0,1.380180359E1
8.671476974E1,-1.402191162E0,1.794616699E0,1.066720581E1
8.676476974E1,5.503845215E-2,1.775466919E0,1.176072693E1
8.681476974E1,4.355010986E-1,3.302154541E-1,1.000917053E1
8.686476974E1,4.474639893E-1,6.484527588E-1,9.128616333E0
8.691476974E1,-5.527496338E-1,1.103088379E0,7.903488159E0
8.696476974E1,-1.674957275E-1,1.875976562E0,7.061218262E0
8.701476974E1,-1.842498779E-1,1.797012329E0,8.338989258E0
8.706476974E1,3.062744141E-1,1.686935425E0,1.048774719E1
8.711476974E1,4.115600586E-1,9.379882812E-1,1.218664551E1
8.716476974E1,-1.435699463E-1,1.148559570E0,1.235414124E1
8.721476974E1,1.210769653E0,6.795654297E-1,1.145922852E1
8.726476974E1,-4.067993164E-2,-4.547119141E-2,1.412962341E1
8.731476974E1,1.299301147E0,3.589172363E-1,7.652252197E0
8.736476974E1,7.968139648E-1,9.164581299E-1,9.078369141E0
8.741476974E1,3.541412354E-1,1.232299805E0,6.563507080E0
8.746476974E1,-2.751770020E-1,1.598403931E0,7.946563721E0
8.751476974E1,8.159484863E-1,2.079360962E0,9.145370483E0
8.756476974E1,4.833526611E-1,1.591232300E0,1.149272156E1
8.761476974E1,9.092712402E-1,1.655838013E0,1.278005981E1
8.766476974E1,-8.063812256E-1,1.990829468E0,1.110269165E1
8.771476974E1,1.899902344E0,8.015899658E-1,1.307916260E1
8.776476974E1,-8.398742676E-1,-2.321014404E-1,1.081794739E1
8.781476974E1,1.196289062E-2,6.077728271E-1,8.080566406E0
8.786476974E1,2.751770020E-1,8.518524170E-1,8.401199341E0
8.791476974E1,0.000000000E0,1.095916748E0,7.341186523E0
8.796476974E1,-6.245269775E-1,1.792221069E0,7.724029541E0
8.801476974E1,-7.585296631E-1,1.761123657E0,8.673980713E0
8.806476974E1,-3.158569336E-1,2.017150879E0,1.142573547E1
8.811476974E1,-1.196289062E-2,8.494567871E-1,1.241397095E1
8.816476974E1,-3.445739746E-1,1.438079834E0,1.245942688E1
8.821476974E1,1.287338257E0,3.900299072E-1,1.001156616E1
8.826476974E1,-1.890258789E-1,-2.177429199E-1,1.208854675E1
8.831476974E1,1.706085205E0,3.756713867E-1,9.209976196E0
8.836476974E1,4.642028809E-1,4.067840576E-1,9.044876099E0
8.841476974E1,-1.387786865E-1,1.086334229E0,6.987045288E0
8.846476974E1,3.828430176E-2,1.773086548E0,7.558929443E0
8.851476974E1,2.081756592E-1,1.969299316E0,9.116653442E0
8.856476974E1,2.201385498E-1,2.167892456E0,9.877578735E0
8.861476974E1,2.392578125E-2,1.272979736E0,1.383290100E1
8.866476974E1,5.264282227E-2,2.014755249E0,1.192582703E1
8.871476974E1,1.395019531E0,-2.033843994E-1,1.404347229E1
8.876476974E1,-8.279113770E-1,-3.373870850E-1,1.022692871E1
8.881476974E1,-2.249298096E-1,-2.395629883E-3,8.410766602E0
8.886476974E1,2.632141113E-1,3.182525635E-1,8.403594971E0
8.891476974E1,4.833526611E-1,9.547424316E-1,7.228713989E0
8.896476974E1,-4.450683594E-1,1.581649780E0,8.405990601E0
8.901476974E1,-2.608184814E-1,1.624725342E0,8.563919067E0
8.906476974E1,4.307556152E-2,1.596008301E0,1.090409851E1
8.911476974E1,6.556396484E-1,7.920227051E-1,1.276092529E1
8.916476974E1,1.435699463E-1,8.039855957E-1,1.231346130E1
8.921476974E1,1.981262207E0,1.579284668E-1,1.163868713E1
8.926476974E1,-1.172485352E-1,1.028900146E-1,1.217707825E1
8.931476974E1,7.609100342E-1,4.378814697E-1,8.066207886E0
8.936476974E1,1.033706665E0,7.058868408E-1,8.922836304E0
8.941476974E1,3.110656738E-1,1.182052612E0,6.805191040E0
8.946476974E1,-3.876342773E-1,1.667800903E0,7.365112305E0
8.951476974E1,1.363983154E-1,1.753936768E0,8.597412109E0
8.956476974E1,4.474639893E-1,1.835296631E0,1.128454590E1
8.961476974E1,2.249298096E-1,1.990829468E0,1.201196289E1
8.966476974E1,8.614196777E-1,1.536193848E0,1.246182251E1
8.971476974E1,4.378814697E-1,1.050445557E0,1.086819458E1
8.976476974E1,1.675415039E-2,3.972015381E-1,1.378265381E1
8.981476974E1,2.488555908E-1,-2.703857422E-1,8.295913696E0
8.986476974E1,6.484527588E-1,-1.627044678E-1,9.812973022E0
8.991476974E1,1.770629883E-1,2.967071533E-1,7.716857910E0
8.996476974E1,4.522399902E-1,1.002593994E0,7.302902222E0
9.001476974E1,1.196441650E-1,1.148559570E0,8.697906494E0
9.006476974E1,3.493499756E-1,1.481155396E0,9.719650269E0
9.011476974E1,4.474639893E-1,1.414154053E0,1.138505554E1
9.016476974E1,1.493118286E0,1.308868408E0,1.162432861E1
9.021476974E1,3.086700439E-1,9.762725830E-1,1.130130005E1
9.026476974E1,2.285140991E0,9.858398438E-1,1.050927734E1
9.031476974E1,1.452438354E0,3.421783447E-1,1.358166504E1
9.036476974E1,1.220336914E0,5.934143066E-1,8.860626221E0
9.041476974E1,1.380661011E0,3.589172363E-1,9.798614502E0
9.046476974E1,8.685913086E-1,6.771697998E-1,9.190826416E0
9.051476974E1,9.738769531E-1,1.134201050E0,8.066207886E0
9.056476974E1,1.375869751E0,1.189239502E0,8.705093384E0
9.061476974E1,5.862426758E-1,1.660614014E0,9.781860352E0
9.066476974E1,1.117446899E0,1.935791016E0,9.111862183E0
9.071476974E1,1.316055298E0,1.854431152E0,1.101655579E1
9.076476974E1,1.191619873E0,2.005187988E0,1.025802612E1
9.081476974E1,2.967071533E-1,1.249053955E0,9.480361938E0
9.086476974E1,1.727615356E0,6.819610596E-1,1.151187134E1
9.091476974E1,6.819610596E-1,-1.674957275E-1,1.078205872E1
9.096476974E1,2.871704102E-2,1.411743164E-1,7.910675049E0
9.101476974E1,1.263412476E0,4.761657715E-1,9.978073120E0
9.106476974E1,6.580200195E-1,-1.196289062E-2,1.012881470E1
9.111476974E1,9.499511719E-1,6.053771973E-1,1.009771729E1
9.116476974E1,9.403839111E-1,3.708801270E-1,1.016471863E1
9.121476974E1,2.392883301E-1,1.227523804E0,9.461227417E0
9.126476974E1,9.567260742E-3,3.206329346E-1,1.011445618E1
9.131476974E1,-3.684997559E-1,8.542327881E-1,1.034895325E1
9.136476974E1,1.507476807E0,2.225341797E-1,1.019342041E1
9.141476974E1,-5.766754150E-1,1.323226929E0,1.007377625E1
9.146476974E1,5.838470459E-1,5.479583740E-1,1.060499573E1
9.151476974E1,-5.743408203E-2,1.191619873E0,9.674179077E0
9.156476974E1,-2.679901123E-1,9.475555420E-1,9.966110229E0
9.161476974E1,-3.111267090E-2,8.327026367E-1,1.060499573E1
9.166476974E1,2.440643311E-1,4.570312500E-1,1.060020447E1
9.171476974E1,-9.809875488E-2,5.647125244E-1,9.734008789E0
9.176476974E1,5.264282227E-2,8.183441162E-1,9.777069092E0
9.181476974E1,-4.115600586E-1,8.542327881E-1,1.025564575E1
