"Time (s)","Gyroscope x (rad/s)","Gyroscope y (rad/s)","Gyroscope z (rad/s)"
6.476973900E-2,-2.075042725E-1,-4.501342773E-1,4.205322266E-2
1.147697390E-1,-4.457397461E-1,-2.320404053E-1,1.281738281E-1
1.647697390E-1,-1.262512207E-1,-2.540435791E-1,1.410064697E-1
2.147697390E-1,-1.164703369E-1,-1.049957275E-1,2.375183105E-1
2.647697390E-1,-1.378631592E-1,-1.532440186E-1,1.477355957E-1
3.147697390E-1,-1.696319580E-1,-7.749938965E-2,1.715545654E-1
3.647697390E-1,-4.089355469E-3,8.619689941E-2,-1.436462402E-1
4.147697390E-1,1.730651855E-1,1.020812988E-1,-1.613616943E-1
4.647697390E-1,-1.445770264E-1,1.168823242E-2,1.457214355E-2
5.147697390E-1,-2.178802490E-1,2.755737305E-2,-4.652404785E-2
5.647697390E-1,2.340698242E-2,1.595001221E-1,-1.094360352E-1
6.147697390E-1,-3.950500488E-2,3.367614746E-2,3.837585449E-2
6.647697390E-1,1.972961426E-2,-5.340576172E-4,-1.375427246E-1
7.147697390E-1,-1.445770264E-1,-4.806518555E-3,1.516723633E-2
7.647697390E-1,1.162567139E-1,1.008605957E-1,1.823425293E-2
8.147697390E-1,-1.653442383E-1,2.267456055E-2,-1.937866211E-3
8.647697390E-1,-4.928588867E-2,-1.074371338E-1,1.516723633E-2
9.147697390E-1,4.783630371E-2,1.657104492E-2,-1.198272705E-1
9.647697390E-1,5.027770996E-2,-1.245422363E-1,-2.085876465E-2
1.014769739E0,-9.999084473E-2,-1.263580322E-1,3.776550293E-2
1.064769739E0,2.624511719E-3,7.398986816E-2,-1.125030518E-1
1.114769739E0,1.240539551E-2,-1.092529297E-1,-2.047424316E-1
1.164769739E0,-3.479003906E-3,4.588317871E-2,3.288269043E-2
1.214769739E0,6.494140625E-2,4.557800293E-1,-1.780700684E-2
1.264769739E0,2.555236816E-1,8.253479004E-2,1.697235107E-1
1.314769739E0,2.420959473E-1,-3.535461426E-2,1.019134521E-1
1.364769739E0,2.523803711E-2,-4.061431885E-1,-2.914886475E-1
1.414769739E0,1.529083252E-1,5.883483887E-1,-1.912994385E-1
1.464769739E0,9.730529785E-2,1.143035889E-1,-7.339477539E-2
1.514769739E0,5.271911621E-2,-2.894744873E-1,-1.063842773E-1
1.564769739E0,-1.366424561E-1,-9.689331055E-3,-1.002807617E-1
1.614769739E0,-4.989624023E-2,3.226013184E-1,6.159973145E-2
1.664769739E0,-1.965026855E-1,-3.352355957E-2,1.330718994E-1
1.714769739E0,4.844665527E-2,3.916931152E-2,1.849822998E-1
1.764769739E0,1.089324951E-1,2.883911133E-1,3.487091064E-1
1.814769739E0,3.392181396E-1,7.704162598E-2,3.114318848E-1
1.864769739E0,2.866973877E-1,1.840209961E-2,2.583007812E-1
1.914769739E0,1.022033691E-1,7.361602783E-1,5.337982178E-1
1.964769739E0,1.687927246E-1,-5.594787598E-1,1.892700195E-1
2.014769739E0,3.899230957E-1,1.790618896E-1,4.611053467E-1
2.064769739E0,-2.771301270E-1,2.529754639E-1,2.656250000E-1
2.114769739E0,3.073120117E-2,-1.691284180E-1,1.287841797E-1
2.164769739E0,-3.157043457E-2,4.588317871E-2,1.489562988E-1
2.214769739E0,7.104492188E-2,-3.065795898E-1,2.130889893E-1
2.264769739E0,1.179504395E-2,2.199859619E-1,2.149200439E-1
2.314769739E0,3.250122070E-3,3.977966309E-2,5.487060547E-2
2.364769739E0,3.966369629E-1,-1.172027588E-1,1.067962646E-1
2.414769739E0,6.799316406E-2,-1.763916016E-2,-2.603149414E-1
2.464769739E0,-9.570312500E-2,3.018341064E-1,2.554321289E-2
2.514769739E0,-3.192901611E-1,-3.078002930E-1,-4.784088135E-1
2.564769739E0,5.761718750E-2,-2.313232422E-2,-9.661865234E-2
2.614769739E0,-2.203216553E-1,-4.806518555E-3,5.401611328E-3
2.664769739E0,1.077117920E-1,-3.261260986E-1,-5.018615723E-2
2.714769739E0,1.003723145E-1,4.111785889E-1,1.049652100E-1
2.764769739E0,1.730651855E-1,-5.307006836E-2,1.501770020E-1
2.814769739E0,-1.037597656E-3,-8.789062500E-2,1.128997803E-1
2.864769739E0,-3.096008301E-2,7.765197754E-2,2.650146484E-1
2.914769739E0,1.718444824E-1,-3.224639893E-1,2.130889893E-1
2.964769739E0,1.443634033E-1,8.241424561E-1,3.780212402E-1
3.014769739E0,-3.180694580E-1,-6.340026855E-1,3.570556641E-3
3.064769739E0,-1.134338379E-1,3.873596191E-1,3.364868164E-1
3.114769739E0,-2.710266113E-1,2.877807617E-2,7.746887207E-2
3.164769739E0,1.728820801E-2,5.444335938E-2,2.564544678E-1
3.214769739E0,1.240539551E-2,1.014709473E-1,2.277526855E-1
3.264769739E0,2.817993164E-1,-3.658294678E-1,3.334350586E-1
3.314769739E0,1.382446289E-1,-1.245422363E-1,2.100372314E-1
3.364769739E0,1.003723145E-1,8.192443848E-2,8.969116211E-2
3.414769739E0,-5.477905273E-2,-2.717590332E-1,-1.021118164E-1
3.464769739E0,6.372070312E-2,3.916320801E-1,5.731201172E-2
3.514769739E0,-5.727996826E-1,-1.410217285E-1,-3.825073242E-1
3.564769739E0,-1.732940674E-1,-1.029968262E-2,-2.756042480E-1
3.614769739E0,-3.986968994E-1,-3.289794922E-2,-7.829284668E-2
3.664769739E0,-1.885528564E-1,-3.517761230E-1,-2.633819580E-1
3.714769739E0,-2.545166016E-2,2.975616455E-1,2.020874023E-1
3.764769739E0,8.265686035E-2,3.305053711E-2,1.739959717E-1
3.814769739E0,3.880920410E-1,-8.848571777E-2,3.316040039E-1
3.864769739E0,2.127685547E-1,1.112518311E-1,2.576751709E-1
3.914769739E0,2.530822754E-1,-1.923370361E-1,3.022766113E-1
3.964769739E0,4.186248779E-1,9.402008057E-1,4.824829102E-1
4.014769739E0,-3.247833252E-1,-4.084777832E-2,2.045288086E-1
4.064769739E0,1.529083252E-1,-3.817138672E-1,1.367340088E-1
4.114769739E0,-4.432983398E-1,6.763000488E-1,2.741851807E-1
4.164769739E0,-4.164123535E-1,5.261230469E-2,3.126525879E-1
4.214769739E0,4.308471680E-1,-2.008972168E-1,3.499298096E-1
4.264769739E0,1.712341309E-1,-1.104888916E-1,3.859710693E-1
4.314769739E0,3.679351807E-1,-2.558746338E-1,3.181610107E-1
4.364769739E0,2.928009033E-1,-3.535461426E-2,6.282043457E-2
4.414769739E0,-1.916198730E-1,-2.601470947E-1,-2.316131592E-1
4.464769739E0,-3.523254395E-2,4.386749268E-1,-4.286193848E-2
4.514769739E0,-8.269195557E-1,-1.141510010E-1,-4.130401611E-1
4.564769739E0,1.266326904E-1,3.030548096E-1,2.741851807E-1
4.614769739E0,-4.555206299E-1,2.883911133E-1,1.788787842E-1
4.664769739E0,8.876037598E-2,-3.377380371E-1,2.124786377E-1
4.714769739E0,8.570861816E-2,3.519287109E-1,2.491302490E-1
4.764769739E0,-3.218078613E-2,-2.381591797E-1,2.381286621E-1
4.814769739E0,3.105010986E-1,-1.972351074E-1,1.184082031E-1
4.864769739E0,4.539489746E-2,6.237792969E-2,8.297729492E-2
4.914769739E0,1.492462158E-1,2.572631836E-2,2.472991943E-1
4.964769739E0,-9.448242188E-2,4.344024658E-1,6.282043457E-2
5.014769739E0,-2.600250244E-1,-2.760314941E-1,-1.247100830E-1
5.064769739E0,-2.032165527E-1,1.051483154E-1,1.978149414E-1
5.114769739E0,-4.023590088E-1,-1.043701172E-1,1.760864258E-2
5.164769739E0,-2.123870850E-1,-2.393798828E-1,-7.156372070E-2
5.214769739E0,-1.325988770E-2,-1.343078613E-1,1.165618896E-1
5.264769739E0,2.695922852E-1,-2.039489746E-1,2.576751709E-1
5.314769739E0,7.531738281E-2,-4.861755371E-1,6.159973145E-2
5.364769739E0,2.524871826E-1,-2.357177734E-1,1.129150391E-3
5.414769739E0,-2.441558838E-1,-1.831817627E-1,-2.413940430E-1
5.464769739E0,1.254119873E-1,2.609100342E-1,2.861022949E-2
5.514769739E0,-6.363220215E-1,-7.688903809E-2,-4.826812744E-1
5.564769739E0,-1.256408691E-1,7.765197754E-2,1.457214355E-2
5.614769739E0,-5.196533203E-1,-4.389953613E-2,8.236694336E-2
5.664769739E0,-8.166503906E-2,1.857757568E-1,-3.158569336E-3
5.714769739E0,1.987152100E-1,4.344177246E-2,2.833404541E-1
5.764769739E0,4.033660889E-1,-1.885986328E-2,1.929321289E-1
5.814769739E0,4.600524902E-2,-2.974243164E-1,1.037445068E-1
5.864769739E0,1.962738037E-1,7.415771484E-3,1.800994873E-1
5.914769739E0,-3.401184082E-2,1.307983398E-1,1.220703125E-1
5.964769739E0,1.364135742E-1,-7.261657715E-2,2.027130127E-1
6.014769739E0,4.173278809E-2,-1.269836426E-1,-1.363220215E-1
6.064769739E0,-2.673645020E-1,2.877960205E-1,6.892395020E-2
6.114769739E0,-5.037689209E-1,-2.210540771E-1,1.141204834E-1
6.164769739E0,-8.105468750E-2,2.798461914E-1,1.394653320E-2
6.214769739E0,-3.462219238E-2,1.662292480E-1,3.206024170E-1
6.264769739E0,4.589538574E-1,-2.290039062E-1,2.112579346E-1
6.314769739E0,2.598114014E-1,-1.172027588E-1,1.823425293E-2
6.364769739E0,1.425170898E-1,-1.459197998E-1,-8.010864258E-2
6.414769739E0,2.854766846E-1,-1.672973633E-1,-2.841491699E-1
6.464769739E0,-6.272888184E-2,-1.489715576E-1,-1.063842773E-1
6.514769739E0,-5.660858154E-1,-2.748107910E-1,-6.586151123E-1
6.564769739E0,-4.989624023E-2,6.530914307E-1,1.874237061E-1
6.614769739E0,-6.155548096E-1,-2.558746338E-1,-4.225158691E-2
6.664769739E0,4.284057617E-1,1.179656982E-1,2.607421875E-1
6.714769739E0,-6.530761719E-3,3.714752197E-1,3.920745850E-1
6.764769739E0,3.434906006E-1,-2.967987061E-1,4.024505615E-1
6.814769739E0,2.023925781E-1,-1.092529297E-1,3.761901855E-1
6.864769739E0,4.661560059E-2,-2.143402100E-1,2.204132080E-1
6.914769739E0,3.300628662E-1,5.742797852E-1,5.344085693E-1
6.964769739E0,-2.160491943E-1,-2.870178223E-1,7.931518555E-2
7.014769739E0,2.378234863E-1,2.163238525E-1,3.694763184E-1
7.064769739E0,-3.901519775E-1,5.131988525E-1,2.393493652E-1
7.114769739E0,-5.538635254E-1,1.784515381E-1,2.705078125E-1
7.164769739E0,-5.050659180E-2,-1.049957275E-1,4.592742920E-1
7.214769739E0,9.364318848E-2,-1.520233154E-1,3.175506592E-1
7.264769739E0,2.872924805E-1,-1.886749268E-1,2.448577881E-1
7.314769739E0,2.842407227E-1,-3.420104980E-1,6.097412109E-2
7.364769739E0,1.865081787E-1,-9.338378906E-2,-2.120666504E-1
7.414769739E0,9.364318848E-2,2.492980957E-1,-1.687011719E-1
7.464769739E0,-8.293609619E-1,-4.440155029E-1,-6.989288330E-1
7.514769739E0,-1.372375488E-1,7.361602783E-1,-2.395477295E-1
7.564769739E0,-5.227050781E-1,3.305053711E-2,-1.475524902E-2
7.614769739E0,-1.641235352E-1,4.344177246E-2,1.629943848E-1
7.664769739E0,-2.355957031E-1,6.665039062E-2,1.028442383E-2
7.714769739E0,3.123474121E-1,-2.210540771E-1,3.377075195E-1
7.764769739E0,2.921752930E-1,5.993652344E-2,1.440582275E-1
7.814769739E0,3.954162598E-1,7.276916504E-2,2.619628906E-1
7.864769739E0,1.889495850E-1,9.048461914E-2,1.843872070E-1
7.914769739E0,2.622528076E-1,3.060913086E-2,1.593322754E-1
7.964769739E0,-1.006011963E-1,-7.684020996E-1,-1.906890869E-1
8.014769739E0,-9.265136719E-2,4.918212891E-1,1.452789307E-1
8.064769739E0,-4.579620361E-1,-1.954040527E-1,-9.843444824E-2
8.114769739E0,-5.050659180E-2,4.374542236E-1,2.588958740E-1
8.164769739E0,-4.377746582E-2,6.665039062E-2,1.782684326E-1
8.214769739E0,4.931640625E-1,-3.780517578E-1,4.647674561E-1
8.264769739E0,1.728820801E-2,-2.271575928E-1,2.277526855E-1
8.314769739E0,2.744750977E-1,-3.792724609E-1,2.576751709E-1
8.364769739E0,-6.150817871E-2,5.993652344E-2,9.063720703E-3
8.414769739E0,2.512512207E-1,3.378906250E-1,3.199920654E-1
8.464769739E0,-2.398681641E-1,-2.742004395E-1,-3.379058838E-1
8.514769739E0,-3.779296875E-1,2.004394531E-1,-4.686279297E-1
8.564769739E0,-4.946136475E-1,6.811981201E-1,-1.234893799E-1
8.614769739E0,-2.453765869E-1,-3.921051025E-1,-1.436462402E-1
8.664769739E0,2.109375000E-1,3.916320801E-1,-9.721374512E-2
8.714769739E0,1.718444824E-1,1.705017090E-1,8.847045898E-2
8.764769739E0,4.674987793E-1,-2.436523438E-1,2.155303955E-1
8.814769739E0,-1.848907471E-1,-5.124359131E-1,-1.748046875E-1
8.864769739E0,1.473999023E-1,1.069641113E-1,1.642150879E-1
8.914769739E0,-1.335754395E-1,4.686126709E-1,2.799987793E-2
8.964769739E0,3.783111572E-1,-4.806518555E-3,2.925109863E-1
9.014769739E0,-1.653442383E-1,2.896270752E-1,4.720916748E-1
9.064769739E0,3.250122070E-3,-1.025543213E-1,5.637359619E-1
9.114769739E0,-4.867553711E-2,5.162506104E-1,4.036865234E-1
9.164769739E0,-1.500854492E-1,-1.343078613E-1,4.449462891E-2
9.214769739E0,6.238861084E-1,-3.279571533E-1,4.537658691E-1
9.264769739E0,-4.745483398E-2,-2.271575928E-1,1.422271729E-1
9.314769739E0,2.817993164E-1,-7.934417725E-1,-9.783935547E-2
9.364769739E0,-2.160491943E-1,2.615203857E-1,-1.021118164E-1
9.414769739E0,6.127929688E-2,2.383117676E-1,-2.636718750E-2
9.464769739E0,-3.516693115E-1,-1.483612061E-1,-7.209320068E-1
9.514769739E0,-1.024322510E-1,7.532653809E-1,-7.522583008E-2
9.564769739E0,-3.883209229E-1,2.199859619E-1,-3.125000000E-2
9.614769739E0,2.029418945E-3,1.008605957E-1,2.006530762E-2
9.664769739E0,1.972961426E-2,-2.577056885E-1,-8.378601074E-2
9.714769739E0,4.772796631E-1,-2.974243164E-1,2.301940918E-1
9.764769739E0,8.876037598E-2,1.344604492E-1,1.410064697E-1
9.814769739E0,3.520507812E-1,-2.100524902E-1,2.210235596E-1
9.864769739E0,2.353820801E-1,2.890167236E-1,2.558441162E-1
9.914769739E0,2.035522461E-2,7.990875244E-1,4.641571045E-1
9.964769739E0,6.372070312E-2,-3.511657715E-1,2.179718018E-1
1.001476974E1,-1.103668213E-1,1.094207764E-1,4.537658691E-1
1.006476974E1,-5.159912109E-1,-3.743743896E-1,1.458892822E-1
1.011476974E1,-9.265136719E-2,-2.008056641E-2,1.091003418E-2
1.016476974E1,-1.280822754E-1,-1.599731445E-1,-1.170349121E-2
1.021476974E1,5.310363770E-1,-5.521392822E-1,1.245117188E-1
1.026476974E1,1.993255615E-1,-8.789062500E-2,-1.961822510E-1
1.031476974E1,1.168670654E-1,-3.750000000E-1,-3.067474365E-1
1.036476974E1,-7.493591309E-2,9.780883789E-2,-2.939300537E-1
1.041476974E1,-5.966186523E-1,-4.983825684E-1,-6.060791016E-1
1.046476974E1,-1.677856445E-1,1.931152344E-1,-2.804870605E-1
1.051476974E1,-2.875213623E-1,7.618255615E-1,2.448577881E-1
1.056476974E1,-5.202636719E-1,-1.702880859E-2,1.434478760E-1
1.061476974E1,2.274322510E-1,2.016601562E-1,1.935424805E-1
1.066476974E1,3.744506836E-2,1.173553467E-1,2.118682861E-1
1.071476974E1,4.137420654E-1,-3.279571533E-1,3.071594238E-1
1.076476974E1,2.524871826E-1,3.794860840E-2,1.666564941E-1
1.081476974E1,1.797790527E-1,-3.603363037E-1,4.264831543E-2
1.086476974E1,2.371978760E-1,8.632354736E-1,2.656250000E-1
1.091476974E1,-3.400573730E-1,-3.890380859E-1,-3.247070312E-2
1.096476974E1,3.062438965E-1,-2.198333740E-1,-6.912231445E-2
1.101476974E1,-2.111663818E-1,4.826660156E-1,1.123046875E-1
1.106476974E1,-3.547210693E-1,1.185760498E-1,-4.103088379E-2
1.111476974E1,2.121582031E-1,-2.540435791E-1,8.236694336E-2
1.116476974E1,2.200927734E-1,-7.383728027E-2,2.656250000E-1
1.121476974E1,4.002990723E-1,3.182983398E-2,4.843139648E-1
1.126476974E1,-4.011535645E-2,-1.575317383E-1,5.303955078E-2
1.131476974E1,1.364135742E-1,-4.647827148E-1,3.288269043E-2
1.136476974E1,-3.449401855E-1,3.159027100E-1,-1.057739258E-1
1.141476974E1,-7.334594727E-1,-1.153717041E-1,-4.710693359E-1
1.146476974E1,2.909545898E-1,8.351287842E-1,1.746063232E-1
1.151476974E1,-2.490386963E-1,-6.283569336E-2,-3.796386719E-2
1.156476974E1,2.401733398E-2,2.004394531E-1,2.430267334E-1
1.161476974E1,-3.584289551E-2,1.766052246E-1,2.289733887E-1
1.166476974E1,2.561492920E-1,-2.399902344E-1,3.969573975E-1
1.171476974E1,2.164306641E-1,1.716613770E-2,3.370971680E-1
1.176476974E1,1.498565674E-1,1.485137939E-1,3.291625977E-1
1.181476974E1,5.577087402E-2,-4.037017822E-1,1.208496094E-1
1.186476974E1,-3.431091309E-1,6.262207031E-1,2.906646729E-1
1.191476974E1,-2.649230957E-1,-3.285675049E-1,1.342926025E-1
1.196476974E1,8.132934570E-3,-1.758575439E-1,3.175506592E-1
1.201476974E1,-5.062103271E-1,-2.369384766E-1,2.143096924E-1
1.206476974E1,4.722595215E-2,1.657104492E-2,4.323883057E-1
1.211476974E1,3.845214844E-3,1.033020020E-1,1.581115723E-1
1.216476974E1,3.257904053E-1,-6.100463867E-2,3.743591309E-1
1.221476974E1,-6.210327148E-2,-7.627868652E-2,1.129150391E-3
1.226476974E1,4.247436523E-1,7.415771484E-3,1.507720947E-1
1.231476974E1,6.555175781E-2,9.536743164E-2,-3.501281738E-1
1.236476974E1,7.594299316E-2,2.413635254E-1,-7.585144043E-2
1.241476974E1,-3.498382568E-1,-9.155273438E-2,-6.812133789E-1
1.246476974E1,-4.074096680E-2,5.871276855E-1,-3.727264404E-1
1.251476974E1,-6.760406494E-1,-6.222534180E-2,-3.256835938E-1
1.256476974E1,-3.767395020E-2,-3.377380371E-1,-2.200012207E-1
1.261476974E1,2.095031738E-2,2.987976074E-1,-3.247070312E-2
1.266476974E1,2.329254150E-1,-1.654663086E-1,8.602905273E-2
1.271476974E1,4.888916016E-1,-8.911132812E-2,2.631835938E-1
1.276476974E1,-1.019287109E-2,-3.383331299E-1,-1.259460449E-1
1.281476974E1,-2.545166016E-2,-3.468933105E-1,-6.668090820E-2
1.286476974E1,-4.860534668E-1,2.010498047E-1,-1.717529297E-1
1.291476974E1,2.848510742E-1,-1.251373291E-1,4.937744141E-2
1.296476974E1,-3.516693115E-1,1.375122070E-1,2.161407471E-1
1.301476974E1,-3.650970459E-1,-4.763946533E-1,1.550598145E-1
1.306476974E1,2.292633057E-1,-6.034545898E-1,3.120574951E-1
1.311476974E1,5.027770996E-2,3.940887451E-1,1.911010742E-1
1.316476974E1,3.691558838E-1,-4.635620117E-1,3.316040039E-1
1.321476974E1,3.477783203E-1,-1.648559570E-1,1.892700195E-1
1.326476974E1,2.359771729E-1,1.185760498E-1,1.477355957E-1
1.331476974E1,4.039611816E-1,-1.367645264E-1,3.410339355E-2
1.336476974E1,3.605957031E-1,-2.740478516E-2,2.045288086E-1
1.341476974E1,-3.479003906E-3,-2.839813232E-1,-2.890472412E-1
1.346476974E1,-5.905151367E-2,3.641510010E-1,-1.204376221E-1
1.351476974E1,-4.451293945E-1,-3.914794922E-1,-1.772460938E-1
1.356476974E1,2.170410156E-1,1.924896240E-1,3.227233887E-2
1.361476974E1,-2.178955078E-2,5.077056885E-1,1.129150391E-3
1.366476974E1,3.117370605E-1,-8.116149902E-2,2.442474365E-1
1.371476974E1,2.408599854E-1,1.301879883E-1,1.330718994E-1
1.376476974E1,8.815002441E-2,4.771423340E-2,2.601165771E-1
1.381476974E1,2.653045654E-1,3.635406494E-1,3.627471924E-1
1.386476974E1,-3.669433594E-1,1.680603027E-1,2.039337158E-1
1.391476974E1,2.402648926E-1,-1.581268311E-1,3.004455566E-1
1.396476974E1,-4.445190430E-1,2.077636719E-1,3.383178711E-1
1.401476974E1,-3.070678711E-1,-2.112731934E-1,2.045288086E-1
1.406476974E1,-6.272888184E-2,6.054687500E-2,3.798522949E-1
1.411476974E1,-1.121978760E-1,-6.039428711E-2,2.515716553E-1
1.416476974E1,1.858978271E-1,-1.575317383E-1,3.004455566E-1
1.421476974E1,2.170410156E-1,2.346496582E-1,2.521820068E-1
1.426476974E1,1.675720215E-1,-4.544067383E-1,8.908081055E-2
1.431476974E1,2.462768555E-2,2.120361328E-1,-1.234893799E-1
1.436476974E1,1.089324951E-1,-1.416473389E-1,1.394653320E-2
1.441476974E1,-2.600250244E-1,-6.138458252E-1,-5.791931152E-1
1.446476974E1,-2.783508301E-1,5.663452148E-1,-1.057739258E-1
1.451476974E1,-5.294342041E-1,-1.831817627E-1,-3.403472900E-1
1.456476974E1,3.673248291E-1,1.552429199E-1,2.405700684E-1
1.461476974E1,1.911926270E-2,5.364074707E-1,-5.018615723E-2
1.466476974E1,4.540557861E-1,-7.688903809E-2,3.022766113E-1
1.471476974E1,3.502197266E-1,2.658081055E-1,8.847045898E-2
1.476476974E1,2.665252686E-1,-1.392059326E-1,2.265319824E-1
1.481476974E1,4.821624756E-1,8.803405762E-1,3.016662598E-1
1.486476974E1,-3.131866455E-1,-8.025970459E-1,4.264831543E-2
1.491476974E1,3.471679688E-1,-5.887908936E-1,5.026397705E-1
1.496476974E1,-5.074310303E-1,6.769104004E-1,-3.063964844E-2
1.501476974E1,-3.027954102E-1,-1.045730591E0,5.853271484E-2
1.506476974E1,1.382446289E-1,7.288360596E-1,2.216339111E-1
1.511476974E1,1.606750488E-2,-7.627868652E-2,6.159973145E-2
1.516476974E1,4.803314209E-1,-7.078552246E-2,3.212127686E-1
1.521476974E1,5.332946777E-2,1.088104248E-1,-2.126770020E-1
1.526476974E1,8.143615723E-2,-4.434204102E-1,-2.126770020E-1
1.531476974E1,-3.522796631E-1,2.505187988E-1,-2.890472412E-1
1.536476974E1,-4.255828857E-1,-2.900848389E-1,-4.185333252E-1
1.541476974E1,-1.647949219E-3,-7.858276367E-3,6.221008301E-2
1.546476974E1,-7.688903809E-1,-3.615570068E-1,-2.169494629E-1
1.551476974E1,-2.331542969E-1,2.541961670E-1,-3.158569336E-3
1.556476974E1,-1.091461182E-1,4.337921143E-1,-1.597595215E-2
1.561476974E1,1.767272949E-1,-1.563110352E-1,4.205322266E-2
1.566476974E1,3.813781738E-1,1.552429199E-1,2.112579346E-1
1.571476974E1,1.101531982E-1,1.246948242E-1,4.998779297E-2
1.576476974E1,3.153991699E-1,-1.294250488E-1,9.396362305E-2
1.581476974E1,-3.467712402E-1,-8.111572266E-1,-2.297821045E-1
1.586476974E1,2.097167969E-1,3.965301514E-1,1.819458008E-1
1.591476974E1,-5.807495117E-1,1.821136475E-1,4.815673828E-2
1.596476974E1,-1.250305176E-1,-4.324188232E-1,3.645935059E-1
1.601476974E1,-1.616821289E-1,4.484558105E-1,2.766265869E-1
1.606476974E1,8.448791504E-2,-1.457214355E-2,2.796630859E-1
1.611476974E1,4.235229492E-1,-3.474426270E-2,2.460784912E-1
1.616476974E1,1.248168945E-1,-7.749938965E-2,1.312255859E-1
1.621476974E1,3.850402832E-1,-3.432312012E-1,3.961181641E-2
1.626476974E1,2.828979492E-2,1.570587158E-1,-2.792663574E-1
1.631476974E1,-1.818389893E-1,1.802825928E-1,9.274291992E-2
1.636476974E1,-4.830017090E-1,-5.600891113E-1,-5.254364014E-1
1.641476974E1,1.229705811E-1,4.624938965E-1,6.709289551E-2
1.646476974E1,-6.393890381E-1,-1.508026123E-1,5.364990234E-2
1.651476974E1,3.153991699E-1,2.260894775E-1,1.599426270E-1
1.656476974E1,-2.716369629E-1,5.437469482E-1,4.876708984E-2
1.661476974E1,5.768432617E-1,-1.416473389E-1,2.912902832E-1
1.666476974E1,-7.310485840E-2,3.220062256E-1,6.343078613E-2
1.671476974E1,1.254119873E-1,3.427124023E-2,8.358764648E-2
1.676476974E1,5.210876465E-2,5.034332275E-1,1.300048828E-1
1.681476974E1,-1.842956543E-1,1.119186401E0,3.902435303E-1
1.686476974E1,1.302947998E-1,-5.319824219E-1,1.807098389E-1
1.691476974E1,-1.109771729E-1,-1.954040527E-1,3.255004883E-1
1.696476974E1,-3.773193359E-1,-2.876434326E-1,1.098480225E-1
1.701476974E1,1.577911377E-1,-1.685180664E-1,1.764373779E-1
1.706476974E1,7.350158691E-2,-2.801513672E-2,1.251220703E-1
1.711476974E1,4.980468750E-1,-1.428680420E-1,1.917114258E-1
1.716476974E1,7.522583008E-3,-4.196166992E-3,-9.262084961E-3
1.721476974E1,-6.272888184E-2,-5.245971680E-2,-1.170349121E-2
1.726476974E1,-1.598510742E-1,3.409423828E-1,-8.683776855E-2
1.731476974E1,-3.492126465E-1,-7.139587402E-2,-3.918457031E-2
1.736476974E1,1.077117920E-1,-2.374267578E-2,-2.255096436E-1
1.741476974E1,-1.739044189E-1,-5.582580566E-1,2.494812012E-2
1.746476974E1,-2.392578125E-1,-2.485504150E-1,-2.819824219E-2
1.751476974E1,-2.178802490E-1,8.601684570E-1,-8.439636230E-2
1.756476974E1,2.048339844E-1,-1.807403564E-1,3.349304199E-2
1.761476974E1,3.844146729E-1,-6.834411621E-2,1.898803711E-1
1.766476974E1,8.204650879E-2,1.680603027E-1,-7.034301758E-2
1.771476974E1,3.337249756E-1,-3.289794922E-2,8.786010742E-2
1.776476974E1,-1.323547363E-1,1.226089478E0,1.575012207E-1
1.781476974E1,-7.066345215E-2,-5.533599854E-1,-7.829284668E-2
1.786476974E1,-7.676696777E-2,-7.566833496E-2,1.638793945E-2
1.791476974E1,-6.265563965E-1,7.826232910E-2,-1.326446533E-1
1.796476974E1,2.706909180E-2,-1.947937012E-1,7.232666016E-3
1.801476974E1,-4.255676270E-2,2.065429688E-1,5.187988281E-4
1.806476974E1,4.742279053E-1,-1.911163330E-1,2.118682861E-1
1.811476974E1,5.027770996E-2,-1.165924072E-1,1.226806641E-1
1.816476974E1,7.226562500E-2,-3.420104980E-1,-6.729125977E-2
1.821476974E1,8.876037598E-2,-3.609466553E-1,-2.242889404E-1
1.826476974E1,3.134155273E-2,-4.512023926E-2,6.465148926E-2
1.831476974E1,-1.989440918E-1,7.415771484E-3,-4.631347656E-1
1.836476974E1,-3.400573730E-1,1.937103271E-1,-2.138977051E-1
1.841476974E1,-4.976654053E-1,1.332397461E-1,-1.662597656E-1
1.846476974E1,-4.272460938E-4,1.863861084E-1,1.507720947E-1
1.851476974E1,2.890014648E-2,1.069641113E-1,1.516723633E-2
1.856476974E1,3.447113037E-1,-9.704589844E-2,2.326354980E-1
1.861476974E1,3.416595459E-1,6.542968750E-2,5.059814453E-2
1.866476974E1,2.744750977E-1,-1.709594727E-1,1.150512695E-2
1.871476974E1,1.180877686E-1,9.194335938E-1,1.593322754E-1
1.876476974E1,-9.204101562E-2,-6.504974365E-1,-1.253204346E-1
1.881476974E1,1.791687012E-1,1.955566406E-1,-3.369140625E-2
1.886476974E1,-6.082305908E-1,2.138824463E-1,-1.143188477E-1
1.891476974E1,-1.189117432E-1,-2.723693848E-1,-7.463073730E-2
1.896476974E1,-8.654785156E-2,2.859497070E-1,6.037902832E-2
1.901476974E1,2.616424561E-1,-2.155609131E-1,1.428375244E-1
1.906476974E1,3.593750000E-1,-3.627777100E-1,2.375183105E-1
1.911476974E1,-4.562377930E-2,-2.234954834E-1,-3.091888428E-1
1.916476974E1,6.860351562E-2,-7.505798340E-2,-2.194061279E-1
1.921476974E1,-2.973022461E-1,1.491241455E-1,-1.320495605E-1
1.926476974E1,-2.966766357E-1,-6.114044189E-1,-5.987396240E-1
1.931476974E1,4.470825195E-3,6.091156006E-1,-1.312255859E-3
1.936476974E1,-4.762878418E-1,1.747894287E-1,-2.636718750E-2
1.941476974E1,-1.103668213E-1,1.863861084E-1,-1.063842773E-1
1.946476974E1,7.522583008E-3,2.169342041E-1,-1.780700684E-2
1.951476974E1,5.163726807E-1,-7.749938965E-2,1.581115723E-1
1.956476974E1,3.068389893E-1,5.871582031E-2,2.250671387E-2
1.961476974E1,1.199188232E-1,-1.579284668E-2,-1.088409424E-1
1.966476974E1,3.129577637E-1,6.921844482E-1,3.169403076E-1
1.971476974E1,5.691528320E-3,-1.023117065E0,-6.912231445E-2
1.976476974E1,4.455108643E-1,2.749633789E-1,3.444213867E-1
1.981476974E1,-3.125610352E-1,5.156402588E-1,3.175506592E-1
1.986476974E1,-2.337646484E-1,-4.238739014E-1,7.380676270E-2
1.991476974E1,-7.554626465E-2,2.816772461E-2,2.430267334E-1
1.996476974E1,8.743286133E-3,5.200195312E-2,2.973937988E-1
2.001476974E1,2.555236816E-1,-3.756103516E-1,1.471099854E-1
2.006476974E1,1.492462158E-1,-9.155273438E-2,8.847045898E-2
2.011476974E1,1.364135742E-1,2.438049316E-1,-2.517700195E-1
2.016476974E1,-3.253936768E-1,5.627441406E-2,3.349304199E-2
2.021476974E1,-4.121398926E-1,-7.225799561E-1,-7.997283936E-1
2.026476974E1,-2.441558838E-1,8.613891602E-1,6.097412109E-2
2.031476974E1,-5.337066650E-1,-2.570953369E-1,7.014465332E-2
2.036476974E1,-1.030426025E-1,1.314086914E-1,2.372741699E-2
2.041476974E1,-1.121978760E-1,2.871704102E-1,6.221008301E-2
2.046476974E1,4.033660889E-1,-1.275939941E-1,2.686767578E-1
2.051476974E1,3.618316650E-1,9.902954102E-2,2.723388672E-1
2.056476974E1,2.402648926E-1,-2.365112305E-3,1.092376709E-1
2.061476974E1,1.828308105E-1,1.918945312E-1,1.733856201E-1
2.066476974E1,-4.683380127E-1,-3.963775635E-1,-9.295654297E-2
2.071476974E1,1.516876221E-1,-3.279571533E-1,-2.392578125E-2
2.076476974E1,-3.699951172E-1,-2.601470947E-1,1.171875000E-1
2.081476974E1,-2.062835693E-1,-3.389587402E-1,-2.138977051E-1
2.086476974E1,-7.371520996E-2,4.832611084E-1,4.815673828E-2
2.091476974E1,4.174041748E-1,-8.482360840E-2,1.135253906E-1
2.096476974E1,4.442901611E-1,3.916931152E-2,3.260955811E-1
2.101476974E1,1.254119873E-1,-2.265472412E-1,-1.338806152E-1
2.106476974E1,1.101531982E-1,1.161346436E-1,-1.693115234E-1
2.111476974E1,-7.127380371E-2,3.885803223E-1,-5.140686035E-2
2.116476974E1,-7.438507080E-1,-7.122039795E-1,-5.645294189E-1
2.121476974E1,5.206451416E-1,4.441680908E-1,1.638793945E-2
2.126476974E1,-4.548950195E-1,6.573638916E-1,2.310180664E-2
2.131476974E1,1.362609863E-2,-7.592315674E-1,-5.874633789E-2
2.136476974E1,6.005859375E-2,4.686126709E-1,1.544342041E-1
2.141476974E1,3.819732666E-1,-1.404266357E-1,3.321990967E-1
2.146476974E1,3.428802490E-1,-2.045593262E-1,2.234802246E-1
2.151476974E1,-7.249450684E-2,-2.076110840E-1,8.541870117E-2
2.156476974E1,-1.128082275E-1,1.405792236E-1,7.258605957E-2
2.161476974E1,-2.661437988E-1,1.534576416E0,2.173614502E-1
2.166476974E1,8.143615723E-2,-9.877014160E-1,2.583007812E-1
2.171476974E1,1.327514648E-1,-4.079895020E-1,5.166931152E-1
2.176476974E1,-4.475708008E-1,9.536743164E-2,-1.583099365E-1
2.181476974E1,-1.311340332E-1,-7.158660889E-1,-1.735839844E-1
2.186476974E1,2.762908936E-1,4.924316406E-1,1.495513916E-1
2.191476974E1,1.877288818E-1,5.810546875E-2,-4.347229004E-2
2.196476974E1,1.834564209E-1,-1.471405029E-1,3.532409668E-2
2.201476974E1,-9.387207031E-2,-3.505554199E-1,-4.270935059E-1
2.206476974E1,-1.751251221E-1,1.124725342E-1,-4.957580566E-2
2.211476974E1,-3.687744141E-1,-6.344604492E-2,-3.574523926E-1
2.216476974E1,2.481994629E-1,-1.434783936E-1,5.242919922E-2
2.221476974E1,-1.800079346E-1,5.773468018E-1,9.091186523E-2
2.226476974E1,-2.044372559E-1,-3.462829590E-1,-8.378601074E-2
2.231476974E1,2.353820801E-1,5.614624023E-1,6.465148926E-2
2.236476974E1,1.057434082E-2,2.981719971E-1,-7.431030273E-3
2.241476974E1,5.970153809E-1,-2.864227295E-1,3.609161377E-1
2.246476974E1,2.506408691E-1,1.607208252E-1,4.632568359E-2
2.251476974E1,1.645050049E-1,-2.198333740E-1,1.043548584E-1
2.256476974E1,3.099060059E-1,1.049545288E0,1.715545654E-1
2.261476974E1,-1.024322510E-1,-4.409790039E-1,3.898620605E-2
2.266476974E1,4.345092773E-1,-8.360290527E-2,3.108367920E-1
2.271476974E1,-2.331542969E-1,2.444152832E-1,2.326354980E-1
2.276476974E1,2.624511719E-3,-4.434204102E-1,1.159667969E-1
2.281476974E1,-3.096008301E-2,1.100311279E-1,-6.362915039E-2
2.286476974E1,5.457000732E-1,-2.198333740E-1,6.648254395E-2
2.291476974E1,3.392181396E-1,-9.033203125E-2,2.432250977E-2
2.296476974E1,3.502197266E-1,9.780883789E-2,-2.697753906E-2
2.301476974E1,5.332946777E-2,-3.682708740E-1,-2.847595215E-1
2.306476974E1,3.073120117E-2,9.109497070E-2,-9.355163574E-2
2.311476974E1,-5.147705078E-1,-5.875701904E-1,-5.627136230E-1
2.316476974E1,2.995147705E-1,1.442413330E-1,3.358764648E-1
2.321476974E1,-4.970550537E-1,-3.688812256E-1,-1.369323730E-1
2.326476974E1,-5.599975586E-2,-2.955780029E-1,4.998779297E-2
2.331476974E1,-3.157043457E-2,4.533386230E-1,2.128601074E-2
2.336476974E1,2.909545898E-1,3.476562500E-1,1.550598145E-1
2.341476974E1,2.964630127E-1,3.427124023E-2,1.330718994E-1
2.346476974E1,1.516876221E-1,2.022705078E-1,8.602905273E-2
2.351476974E1,3.050079346E-1,-7.322692871E-2,1.471099854E-1
2.356476974E1,-1.692199707E-2,3.183441162E-1,3.688659668E-1
2.361476974E1,1.577911377E-1,-3.310089111E-1,1.391754150E-1
2.366476974E1,-1.830749512E-1,2.877807617E-2,2.240905762E-1
2.371476974E1,-5.575256348E-1,-5.917358398E-2,7.502746582E-2
2.376476974E1,1.913909912E-1,5.383300781E-2,2.616882324E-2
2.381476974E1,-4.011535645E-2,2.346496582E-1,-9.049987793E-2
2.386476974E1,3.441009521E-1,-3.071899414E-1,-1.088409424E-1
2.391476974E1,1.522979736E-1,1.711120605E-1,3.105163574E-2
2.396476974E1,7.594299316E-2,-2.326660156E-1,-2.224426270E-1
2.401476974E1,1.553497314E-1,-1.410217285E-1,5.181884766E-2
2.406476974E1,-5.899047852E-1,-9.376068115E-1,-3.482971191E-1
2.411476974E1,-1.012115479E-1,3.439941406E-1,9.335327148E-2
2.416476974E1,-7.786560059E-1,-1.397705078E-2,-2.450561523E-1
2.421476974E1,-4.867553711E-2,-3.194122314E-1,2.558441162E-1
2.426476974E1,-1.653442383E-1,6.005554199E-1,8.724975586E-2
2.431476974E1,-3.279113770E-2,-6.466674805E-2,-1.338806152E-1
2.436476974E1,2.628631592E-1,1.692810059E-1,2.369079590E-1
2.441476974E1,5.944824219E-2,3.647613525E-1,-1.625823975E-1
2.446476974E1,2.310943604E-1,-1.996765137E-1,1.794891357E-1
2.451476974E1,1.956634521E-1,1.245025635E0,1.709442139E-1
2.456476974E1,-1.751251221E-1,-6.161499023E-2,6.037902832E-2
2.461476974E1,1.241912842E-1,-4.354705811E-1,4.189605713E-1
2.466476974E1,-7.114715576E-1,9.963989258E-2,-7.278442383E-2
2.471476974E1,-4.506225586E-1,-2.479248047E-1,-1.711425781E-1
2.476476974E1,-4.200897217E-1,3.549957275E-1,-7.585144043E-2
2.481476974E1,-1.641235352E-1,-1.801300049E-1,-1.668548584E-1
2.486476974E1,3.941955566E-1,8.009338379E-2,6.343078613E-2
2.491476974E1,1.803894043E-1,2.755737305E-2,-5.079650879E-2
2.496476974E1,2.402648926E-1,-1.385803223E-1,-1.833496094E-1
2.501476974E1,-1.653442383E-1,2.554168701E-1,1.516723633E-2
2.506476974E1,-4.316864014E-1,-7.622833252E-1,-3.110351562E-1
2.511476974E1,-6.272888184E-2,7.587738037E-1,3.743591309E-1
2.516476974E1,-4.775085449E-1,-7.176818848E-1,-2.792663574E-1
2.521476974E1,8.326721191E-2,5.569458008E-3,2.442474365E-1
2.526476974E1,-2.252197266E-1,4.759368896E-1,-1.143188477E-1
2.531476974E1,2.793579102E-1,-1.624145508E-1,2.161407471E-1
2.536476974E1,5.639648438E-2,2.114257812E-1,3.349304199E-2
2.541476974E1,1.553497314E-1,2.364807129E-1,1.086273193E-1
2.546476974E1,3.508300781E-1,2.639617920E-1,-8.651733398E-3
2.551476974E1,-8.532714844E-2,3.049011230E-1,4.327392578E-2
2.556476974E1,5.455017090E-2,-2.815399170E-1,1.177825928E-1
2.561476974E1,-2.447662354E-1,-3.023071289E-1,-9.721374512E-2
2.566476974E1,-4.426727295E-1,-1.892852783E-1,-1.277618408E-1
2.571476974E1,6.921386719E-2,-2.027282715E-1,3.570556641E-3
2.576476974E1,1.486206055E-1,1.143035889E-1,-1.509857178E-1
2.581476974E1,1.009826660E-1,1.228332520E-2,-7.766723633E-2
2.586476974E1,3.703765869E-1,-7.261657715E-2,-1.699218750E-1
2.591476974E1,-2.258300781E-3,-1.269836426E-1,-3.513488770E-1
2.596476974E1,9.364318848E-2,4.258422852E-1,-1.308288574E-1
2.601476974E1,-8.000488281E-1,-9.461517334E-1,-5.425415039E-1
2.606476974E1,3.025665283E-1,5.926055908E-1,3.961181641E-2
2.611476974E1,-4.414520264E-1,-1.037750244E-1,7.258605957E-2
2.616476974E1,1.217498779E-1,-8.911132812E-2,1.579284668E-2
2.621476974E1,1.755065918E-1,4.001922607E-1,4.791259766E-3
2.626476974E1,3.227233887E-1,-2.191162109E-2,1.788787842E-1
2.631476974E1,3.783111572E-1,2.401428223E-1,3.288269043E-2
2.636476974E1,1.840667725E-1,-6.511077881E-1,2.188110352E-2
2.641476974E1,1.162567139E-1,-4.757843018E-1,-3.708953857E-1
2.646476974E1,-9.270935059E-1,8.485717773E-1,-4.698486328E-1
2.651476974E1,-3.027954102E-1,-1.042663574E0,-4.167175293E-1
2.656476974E1,-1.225891113E-1,-3.291778564E-1,3.044128418E-2
2.661476974E1,-2.129974365E-1,1.080703735E0,3.199920654E-1
2.666476974E1,2.591857910E-1,-4.501342773E-1,2.686767578E-1
2.671476974E1,1.321411133E-1,-3.426208496E-1,2.741851807E-1
2.676476974E1,3.379974365E-1,2.804565430E-1,2.247009277E-1
2.681476974E1,3.948059082E-1,-1.727905273E-1,-1.179962158E-1
2.686476974E1,3.703765869E-1,4.136199951E-1,-5.018615723E-2
2.691476974E1,-7.945404053E-1,-9.430999756E-1,-5.767517090E-1
2.696476974E1,1.364135742E-1,5.077056885E-1,2.698974609E-1
2.701476974E1,-8.147125244E-1,-4.556274414E-1,-2.621612549E-1
2.706476974E1,4.723968506E-1,2.596893311E-1,5.606689453E-1
2.711476974E1,-7.615661621E-2,5.602416992E-1,-1.332702637E-1
2.716476974E1,4.345092773E-1,1.246948242E-1,3.096160889E-1
2.721476974E1,2.750701904E-1,2.474822998E-1,1.177825928E-1
2.726476974E1,1.480255127E-1,-1.361389160E-1,3.288269043E-2
2.731476974E1,4.112243652E-2,1.698913574E-1,7.380676270E-2
2.736476974E1,8.692932129E-2,1.141174316E0,2.130889893E-1
2.741476974E1,1.370239258E-1,-3.194122314E-1,9.674072266E-3
2.746476974E1,-1.378631592E-1,-1.288146973E-1,1.355133057E-1
2.751476974E1,-3.553314209E-1,-3.475036621E-1,-2.468872070E-1
2.756476974E1,-1.629638672E-2,6.836395264E-1,8.724975586E-2
2.761476974E1,-1.403045654E-1,-3.840637207E-2,-1.442718506E-1
2.766476974E1,5.401916504E-1,-1.379852295E-1,3.837585449E-2
2.771476974E1,2.462768555E-2,2.102050781E-1,-1.491546631E-1
2.776476974E1,5.084381104E-1,-4.427947998E-1,-1.112823486E-1
2.781476974E1,-2.667541504E-1,2.945098877E-1,-4.796295166E-1
2.786476974E1,3.941955566E-1,4.032440186E-1,1.477355957E-1
2.791476974E1,-3.388366699E-1,-4.739532471E-1,-5.730895996E-1
2.796476974E1,7.716369629E-2,1.356811523E-1,8.053588867E-2
2.801476974E1,-5.996704102E-1,-2.595367432E-1,-4.203796387E-1
2.806476974E1,1.789855957E-2,-4.623413086E-1,1.471099854E-1
2.811476974E1,-1.855163574E-1,5.779571533E-1,1.760864258E-2
2.816476974E1,1.950531006E-1,-1.642456055E-1,8.724975586E-2
2.821476974E1,3.245544434E-1,2.016601562E-1,2.075958252E-1
2.826476974E1,1.302947998E-1,-3.718566895E-2,-4.591369629E-2
2.831476974E1,4.394073486E-1,-4.409790039E-1,8.053588867E-2
2.836476974E1,2.054443359E-1,9.206542969E-1,4.510498047E-2
2.841476974E1,3.012084961E-2,-3.493347168E-1,-2.085876465E-2
2.846476974E1,-5.092773438E-1,-3.102416992E-1,-3.690643311E-1
2.851476974E1,-6.913146973E-1,-1.624145508E-1,-3.391265869E-1
2.856476974E1,-4.158020020E-1,7.398986816E-2,2.332458496E-1
2.861476974E1,-7.141113281E-3,1.540222168E-1,3.077697754E-1
2.866476974E1,1.694030762E-1,-2.650299072E-1,3.291625977E-1
2.871476974E1,2.420959473E-1,-2.137298584E-1,5.303955078E-2
2.876476974E1,1.003723145E-1,2.816772461E-2,-9.906005859E-2
2.881476974E1,5.883789062E-2,1.619567871E-1,-1.351013184E-1
2.886476974E1,-4.231262207E-1,-7.427368164E-1,-3.421783447E-1
2.891476974E1,-5.844116211E-2,-4.061431885E-1,-3.146972656E-1
2.896476974E1,-3.333282471E-1,9.066009521E-1,1.196289062E-1
2.901476974E1,-5.245361328E-1,-4.562377930E-1,-2.303924561E-1
2.906476974E1,1.606750488E-2,-1.519775391E-2,1.465148926E-1
2.911476974E1,-1.019287109E-2,1.717224121E-1,-8.927917480E-2
2.916476974E1,4.400177002E-1,3.977966309E-2,2.082061768E-1
2.921476974E1,4.479522705E-1,-2.862548828E-2,1.000823975E-1
2.926476974E1,5.786895752E-1,2.309722900E-1,1.538391113E-1
2.931476974E1,2.433166504E-1,9.334716797E-1,3.474884033E-1
2.936476974E1,1.370239258E-1,-1.078109741E0,2.344665527E-1
2.941476974E1,2.665252686E-1,2.548065186E-1,3.395385742E-1
2.946476974E1,-5.178222656E-1,8.131408691E-1,2.631835938E-1
2.951476974E1,-4.699707031E-3,-1.941833496E-1,1.929321289E-1
2.956476974E1,-1.903991699E-1,1.417999268E-1,1.636199951E-1
2.961476974E1,1.700134277E-1,-4.446411133E-1,1.458892822E-1
2.966476974E1,3.838195801E-1,-7.688903809E-2,2.045288086E-1
2.971476974E1,2.353820801E-1,-2.680969238E-1,-4.148712158E-1
2.976476974E1,2.256011963E-1,1.240692139E-1,-2.371063232E-1
2.981476974E1,-3.137817383E-1,-4.195861816E-1,-3.776092529E-1
2.986476974E1,-3.510589600E-1,-9.907531738E-1,-7.233734131E-1
2.991476974E1,-5.361480713E-1,1.145446777E0,-2.163391113E-1
2.996476974E1,-4.830017090E-1,1.656188965E-1,-3.256835938E-1
3.001476974E1,2.738494873E-1,4.062957764E-1,-2.047424316E-1
3.006476974E1,1.412963867E-1,9.170532227E-2,-2.010650635E-1
3.011476974E1,5.114898682E-1,-4.267883301E-2,1.257324219E-1
3.016476974E1,-6.333923340E-2,2.816772461E-2,-7.585144043E-2
3.021476974E1,1.956634521E-1,-4.629669189E-1,7.319641113E-2
3.026476974E1,4.539489746E-2,9.279937744E-1,3.768005371E-1
3.031476974E1,-1.085357666E-1,-5.729064941E-1,2.051544189E-1
3.036476974E1,-2.056884766E-2,-5.069427490E-1,3.419799805E-1
3.041476974E1,-6.668701172E-1,3.116149902E-1,-2.303924561E-1
3.046476974E1,-3.070678711E-1,5.370330811E-1,-2.636718750E-2
3.051476974E1,-8.044433594E-2,3.580474854E-1,2.411956787E-1
3.056476974E1,9.852600098E-2,-6.205596924E-1,1.911010742E-1
3.061476974E1,1.522979736E-1,-1.892852783E-1,3.957366943E-1
3.066476974E1,9.353637695E-3,-1.190338135E-1,-2.352752686E-1
3.071476974E1,2.848510742E-1,-5.184936523E-2,-2.016754150E-1
3.076476974E1,-9.570312500E-2,-1.275939941E-1,-3.195800781E-1
3.081476974E1,-7.676696777E-2,-1.341995239E0,-8.644866943E-1
3.086476974E1,-1.525268555E-1,1.091690063E0,-9.049987793E-2
3.091476974E1,-6.363220215E-1,-1.208801270E-1,-2.658233643E-1
3.096476974E1,1.480255127E-1,1.961669922E-1,1.507720947E-1
3.101476974E1,3.134155273E-2,3.274993896E-1,-1.570892334E-1
3.106476974E1,4.400177002E-1,-3.688812256E-1,3.578643799E-1
3.111476974E1,-1.525268555E-1,1.356811523E-1,-1.998443604E-1
3.116476974E1,2.127685547E-1,-3.914794922E-1,1.318511963E-1
3.121476974E1,1.193084717E-1,1.077026367E0,6.648254395E-2
3.126476974E1,-3.290710449E-1,-6.877593994E-1,1.947631836E-1
3.131476974E1,1.070861816E-1,-3.206329346E-1,-1.558685303E-1
3.136476974E1,-6.082305908E-1,7.178344727E-1,-2.890472412E-1
3.141476974E1,-8.471679688E-2,-2.967987061E-1,3.288269043E-2
3.146476974E1,5.639648438E-2,1.393585205E-1,2.515716553E-1
3.151476974E1,2.286529541E-1,-1.453094482E-1,1.727752686E-1
3.156476974E1,3.172302246E-1,-2.082214355E-1,2.191925049E-1
3.161476974E1,2.402648926E-1,-2.742004395E-1,-3.125000000E-2
3.166476974E1,5.883789062E-2,1.124725342E-1,-1.882476807E-1
3.171476974E1,5.127105713E-1,5.296936035E-1,1.446685791E-1
3.176476974E1,-4.768829346E-1,-7.317504883E-1,-9.707641602E-1
3.181476974E1,-2.119445801E-2,1.008605957E-1,-2.004547119E-1
3.186476974E1,-6.369476318E-1,5.608520508E-1,1.159667969E-1
3.191476974E1,-1.018218994E-1,-4.953308105E-1,8.114624023E-2
3.196476974E1,-1.311340332E-1,-5.340576172E-4,-1.143188477E-1
3.201476974E1,-1.995849609E-2,1.589050293E-1,2.128601074E-2
3.206476974E1,1.186981201E-1,4.344177246E-2,1.746063232E-1
3.211476974E1,6.616210938E-2,-2.161712646E-1,3.349304199E-2
3.216476974E1,3.349456787E-1,4.325714111E-1,2.705078125E-1
3.221476974E1,5.516052246E-2,1.385528564E0,5.625152588E-1
3.226476974E1,2.604217529E-1,-1.380493164E0,3.853607178E-1
3.231476974E1,-2.227630615E-1,5.871582031E-2,-1.902770996E-2
3.236476974E1,-3.290710449E-1,5.803985596E-1,-2.023010254E-1
3.241476974E1,-4.371948242E-1,-8.545227051E-1,-3.635559082E-1
3.246476974E1,9.242248535E-2,-3.474426270E-2,1.721649170E-1
3.251476974E1,1.473999023E-1,1.216278076E-1,-1.161651611E-1
3.256476974E1,2.915802002E-1,-3.865966797E-1,-1.754150391E-1
3.261476974E1,-4.440307617E-2,-5.949096680E-1,-4.362640381E-1
3.266476974E1,1.406860352E-1,7.331237793E-1,-1.265411377E-1
3.271476974E1,-5.526428223E-1,-9.315032959E-1,-5.492706299E-1
3.276476974E1,8.876037598E-2,6.903533936E-1,7.746887207E-2
3.281476974E1,-8.550262451E-1,3.128356934E-1,5.242919922E-2
3.286476974E1,2.054443359E-1,-5.264892578E-1,4.763793945E-1
3.291476974E1,-2.569732666E-1,5.040435791E-1,3.126525879E-1
3.296476974E1,4.229125977E-1,-3.792724609E-1,4.189605713E-1
3.301476974E1,6.372070312E-2,3.378906250E-1,2.662353516E-1
3.306476974E1,4.265747070E-1,-5.069427490E-1,1.550598145E-1
3.311476974E1,8.509826660E-2,8.987426758E-2,9.642028809E-2
3.316476974E1,2.695922852E-1,6.909637451E-1,1.568908691E-1
3.321476974E1,3.845214844E-3,-3.200073242E-1,-3.125000000E-2
3.326476974E1,7.716369629E-2,1.662292480E-1,-8.378601074E-2
3.331476974E1,-4.329071045E-1,2.523651123E-1,-8.927917480E-2
3.336476974E1,-7.615661621E-2,3.891906738E-1,1.232910156E-1
3.341476974E1,1.822204590E-1,-4.878234863E-2,1.287841797E-1
3.346476974E1,2.145996094E-1,-4.573059082E-2,4.061279297E-1
3.351476974E1,8.743286133E-3,-2.430419922E-1,-1.173858643E-1
3.356476974E1,2.775268555E-1,-1.385803223E-1,-4.225158691E-2
3.361476974E1,5.210876465E-2,8.070373535E-2,-2.536163330E-1
3.366476974E1,-2.545166016E-2,9.963989258E-2,-1.308288574E-1
3.371476974E1,-3.919830322E-1,-4.525756836E-1,-7.905578613E-1
3.376476974E1,-3.479919434E-1,7.276916504E-2,-4.044952393E-1
3.381476974E1,-4.530792236E-1,-6.205596924E-1,-9.965515137E-2
3.386476974E1,5.516052246E-2,3.030548096E-1,1.904907227E-1
3.391476974E1,-2.123870850E-1,-2.479248047E-1,5.609130859E-2
3.396476974E1,3.428802490E-1,-4.751739502E-1,3.487091064E-1
3.401476974E1,-1.311340332E-1,3.073425293E-1,1.394653320E-2
3.406476974E1,4.033660889E-1,-1.898956299E-1,3.328247070E-1
3.411476974E1,2.329254150E-1,7.074584961E-1,1.501770020E-1
3.416476974E1,-4.836120605E-1,-5.222167969E-1,-2.453613281E-2
3.421476974E1,5.970153809E-1,-7.627868652E-2,2.112579346E-1
3.426476974E1,-4.634552002E-1,7.416687012E-1,2.430267334E-1
3.431476974E1,-1.696319580E-1,-1.727905273E-1,2.491302490E-1
3.436476974E1,-9.999084473E-2,1.527862549E-1,1.947631836E-1
3.441476974E1,1.742858887E-1,-3.975982666E-1,2.375183105E-1
3.446476974E1,1.321411133E-1,-1.007080078E-1,2.155303955E-1
3.451476974E1,3.709869385E-1,-2.668762207E-1,8.175659180E-2
3.456476974E1,1.779479980E-1,6.787109375E-2,-1.082153320E-1
3.461476974E1,3.911437988E-1,3.152770996E-1,1.098480225E-1
3.466476974E1,-4.390106201E-1,-1.263580322E-1,-5.187225342E-1
3.471476974E1,-2.355957031E-1,2.206420898E-2,1.516723633E-2
3.476476974E1,-5.880737305E-1,-2.923583984E-2,3.961181641E-2
3.481476974E1,1.608428955E-1,-2.740478516E-2,2.662353516E-1
3.486476974E1,-1.293029785E-1,1.937103271E-1,2.045288086E-1
3.491476974E1,1.803894043E-1,-3.322296143E-1,1.579284668E-2
3.496476974E1,1.809997559E-1,2.792358398E-1,2.808990479E-1
3.501476974E1,2.903594971E-1,-1.269836426E-1,4.180908203E-3
3.506476974E1,5.420379639E-1,-2.118988037E-1,-3.369140625E-2
3.511476974E1,2.036132812E-1,1.004348755E0,-9.417724609E-2
3.516476974E1,-6.150817871E-2,-9.412689209E-1,-1.974029541E-1
3.521476974E1,-3.382263184E-1,2.224273682E-1,1.788787842E-1
3.526476974E1,-5.422515869E-1,-3.731536865E-1,-5.506896973E-2
3.531476974E1,-2.294921875E-1,-2.008056641E-2,2.405700684E-1
3.536476974E1,-7.920837402E-2,1.613464355E-1,3.047180176E-1
3.541476974E1,3.050079346E-1,-2.980194092E-1,8.175659180E-2
3.546476974E1,5.699157715E-2,1.657104492E-2,-8.683776855E-2
3.551476974E1,4.418487549E-1,5.569458008E-3,-2.536163330E-1
3.556476974E1,4.516143799E-1,-2.002868652E-1,-3.904418945E-1
3.561476974E1,5.426330566E-1,4.405059814E-1,-2.963714600E-1
3.566476974E1,-1.366424561E-1,-7.317504883E-1,-1.015365601E0
3.571476974E1,-3.437194824E-1,5.742797852E-1,-5.425415039E-1
3.576476974E1,-8.250885010E-1,-7.017517090E-2,-2.352752686E-1
3.581476974E1,1.742858887E-1,-9.338378906E-2,3.267211914E-1
3.586476974E1,-2.075042725E-1,2.285308838E-1,2.130889893E-1
3.591476974E1,3.074645996E-1,-4.818878174E-1,2.332458496E-1
3.596476974E1,7.226562500E-2,3.849182129E-1,2.069854736E-1
3.601476974E1,1.694030762E-1,-8.055114746E-2,1.807098389E-1
3.606476974E1,3.404388428E-1,1.210327148E-1,3.645935059E-1
3.611476974E1,2.139892578E-1,8.955993652E-1,4.611053467E-1
3.616476974E1,3.386077881E-1,-5.692443848E-1,3.096160889E-1
3.621476974E1,-1.097564697E-1,1.918945312E-1,2.497406006E-1
3.626476974E1,-5.721893311E-1,-1.147613525E-1,3.267211914E-1
3.631476974E1,-8.593750000E-2,2.016601562E-1,5.221862793E-1
3.636476974E1,2.890014648E-2,4.771423340E-2,6.040496826E-1
3.641476974E1,3.477783203E-1,-2.271575928E-1,5.142517090E-1
3.646476974E1,-5.920410156E-3,-5.612182617E-2,3.187713623E-1
3.651476974E1,4.094696045E-1,-2.980194092E-1,1.544342041E-1
3.656476974E1,-7.798767090E-2,1.460723877E-1,8.358764648E-2
3.661476974E1,-2.178955078E-2,-3.840637207E-2,1.538391113E-1
3.666476974E1,-1.103668213E-1,-3.438415527E-1,-3.250732422E-1
3.671476974E1,-2.607727051E-2,9.304351807E-1,3.199920654E-1
3.676476974E1,-5.135498047E-1,-1.795196533E-1,2.668457031E-1
3.681476974E1,-6.455993652E-2,-1.715698242E-1,2.900543213E-1
3.686476974E1,-9.632873535E-2,3.836975098E-1,5.264587402E-1
3.691476974E1,1.895599365E-1,-5.106048584E-1,7.072906494E-1
3.696476974E1,3.410491943E-1,2.212066650E-1,5.808410645E-1
3.701476974E1,3.123474121E-1,-1.666870117E-1,6.278686523E-1
3.706476974E1,4.791107178E-1,2.059326172E-1,6.064910889E-1
3.711476974E1,1.315155029E-1,1.515655518E-1,5.722808838E-1
3.716476974E1,3.679351807E-1,5.566406250E-2,6.193084717E-1
3.721476974E1,-5.666809082E-1,3.659820557E-1,4.189605713E-1
3.726476974E1,-2.007751465E-1,-4.483032227E-1,4.323883057E-1
3.731476974E1,-1.152496338E-1,8.846130371E-1,6.382598877E-1
3.736476974E1,1.565704346E-1,-4.598999023E-1,3.425903320E-1
3.741476974E1,2.066650391E-1,-1.245422363E-1,5.625152588E-1
3.746476974E1,1.553497314E-1,-9.033203125E-2,2.185821533E-1
3.751476974E1,2.017669678E-1,-2.723693848E-1,9.701538086E-2
3.756476974E1,1.728820801E-2,3.623199463E-1,5.609130859E-2
3.761476974E1,-2.954559326E-1,4.348754883E-3,-1.375427246E-1
3.766476974E1,-7.310485840E-2,-2.595367432E-1,7.136535645E-2
3.771476974E1,-2.856903076E-1,2.218170166E-1,3.334350586E-1
3.776476974E1,-1.140289307E-1,-1.144409180E-3,3.004455566E-1
3.781476974E1,1.248168945E-1,-1.269836426E-1,2.485198975E-1
3.786476974E1,-4.928588867E-2,3.910369873E-1,3.114318848E-1
3.791476974E1,3.386077881E-1,-8.789062500E-2,4.287261963E-1
3.796476974E1,1.632843018E-1,2.694702148E-1,5.252380371E-1
3.801476974E1,3.227233887E-1,-2.076110840E-1,6.382598877E-1
3.806476974E1,1.186981201E-1,1.084365845E0,5.331878662E-1
3.811476974E1,-1.262512207E-1,4.527282715E-2,6.547393799E-1
3.816476974E1,6.232757568E-1,-8.299255371E-2,4.446105957E-1
3.821476974E1,-3.644866943E-1,5.749511719E-2,4.079589844E-1
3.826476974E1,-2.142181396E-1,-1.874542236E-1,1.202392578E-1
3.831476974E1,-1.109771729E-1,5.968933105E-1,2.674560547E-1
3.836476974E1,1.547393799E-1,-9.582519531E-2,2.570800781E-1
3.841476974E1,1.852874756E-1,-2.986450195E-1,1.739959717E-1
3.846476974E1,-3.279113770E-2,-2.265472412E-1,5.853271484E-2
3.851476974E1,7.287597656E-2,-1.526336670E-1,-2.532958984E-3
3.856476974E1,-4.011535645E-2,-6.893920898E-2,-5.599975586E-3
3.861476974E1,3.195190430E-2,-1.091003418E-2,1.884460449E-2
3.866476974E1,-1.891784668E-1,-1.434783936E-1,-1.039428711E-1
3.871476974E1,-1.109771729E-1,-6.161499023E-2,2.674560547E-1
3.876476974E1,-5.373687744E-1,2.749633789E-1,1.880493164E-1
3.881476974E1,2.219390869E-1,9.658813477E-2,5.447845459E-1
3.886476974E1,-2.282714844E-1,3.317718506E-1,2.130889893E-1
3.891476974E1,4.430694580E-1,-5.729064941E-1,5.600585938E-1
3.896476974E1,5.393981934E-2,2.993927002E-1,1.196289062E-1
3.901476974E1,2.420959473E-1,-5.252685547E-1,2.833404541E-1
3.906476974E1,1.865081787E-1,9.585266113E-1,3.578643799E-1
3.911476974E1,-1.806182861E-1,3.910369873E-1,3.206024170E-1
3.916476974E1,6.336669922E-1,-1.886749268E-1,5.020294189E-1
3.921476974E1,-3.101196289E-1,3.916320801E-1,4.519500732E-1
3.926476974E1,-2.252197266E-1,-3.969879150E-1,3.761901855E-1
3.931476974E1,-6.822204590E-2,5.968933105E-1,5.185241699E-1
3.936476974E1,9.963989258E-3,-2.864227295E-1,1.849822998E-1
3.941476974E1,2.109375000E-1,-2.729797363E-1,3.596954346E-1
3.946476974E1,1.057434082E-2,1.069641113E-1,9.457397461E-2
3.951476974E1,4.271850586E-1,-3.694915771E-1,1.306304932E-1
3.956476974E1,-1.203918457E-2,3.580474854E-1,-3.552246094E-2
3.961476974E1,-8.227539062E-2,1.210327148E-1,-4.164123535E-2
3.966476974E1,-4.347381592E-1,-1.226959229E-1,-2.768249512E-1
3.971476974E1,-1.610717773E-1,3.091735840E-1,3.297576904E-1
3.976476974E1,-3.974761963E-1,-1.123199463E-1,2.143096924E-1
3.981476974E1,4.783630371E-2,1.033020020E-1,2.332458496E-1
3.986476974E1,-1.692199707E-2,2.175445557E-1,4.083251953E-2
3.991476974E1,3.667144775E-1,-2.923583984E-2,2.961730957E-1
3.996476974E1,2.463684082E-1,3.525390625E-1,7.014465332E-2
4.001476974E1,4.235229492E-1,-4.513549805E-1,1.794891357E-1
4.006476974E1,2.408599854E-1,7.636566162E-1,3.939056396E-1
4.011476974E1,-6.033325195E-1,-5.820770264E-1,2.310180664E-2
4.016476974E1,3.025665283E-1,2.334289551E-1,2.381286621E-1
4.021476974E1,-5.019378662E-1,1.252899170E-1,1.593322754E-1
4.026476974E1,-2.569732666E-1,-3.804931641E-1,1.306304932E-1
4.031476974E1,1.057434082E-2,8.113098145E-1,3.578643799E-1
4.036476974E1,1.620635986E-1,-5.319824219E-1,4.876708984E-2
4.041476974E1,2.561492920E-1,-1.721801758E-1,2.503509521E-1
4.046476974E1,1.362609863E-2,1.845550537E-1,-1.387634277E-1
4.051476974E1,2.750701904E-1,-1.306457520E-1,-5.079650879E-2
4.056476974E1,-1.103668213E-1,2.554168701E-1,-4.713439941E-2
4.061476974E1,-4.830017090E-1,-2.986450195E-1,-3.586730957E-1
4.066476974E1,-1.610717773E-1,1.961669922E-1,6.159973145E-2
4.071476974E1,-4.213104248E-1,-1.434783936E-1,6.953430176E-2
4.076476974E1,-3.523254395E-2,2.444152832E-1,4.386901855E-2
4.081476974E1,-2.123870850E-1,2.743530273E-1,3.532409668E-2
4.086476974E1,3.709869385E-1,-2.161712646E-1,1.697235107E-1
4.091476974E1,3.134155273E-2,3.672027588E-1,1.819458008E-1
4.096476974E1,5.261535645E-1,-4.208068848E-1,2.497406006E-1
4.101476974E1,3.990173340E-2,1.729431152E-1,2.735595703E-1
4.106476974E1,-1.073150635E-1,-3.786621094E-1,1.055755615E-1
4.111476974E1,2.310943604E-1,-4.892272949E-1,-5.201721191E-2
4.116476974E1,-4.665069580E-1,4.576110840E-1,2.717285156E-1
4.121476974E1,-4.005279541E-1,-8.930053711E-1,-1.312255859E-3
4.126476974E1,4.600524902E-2,4.515075684E-1,5.166931152E-1
4.131476974E1,-1.079254150E-1,2.767944336E-1,1.709442139E-1
4.136476974E1,5.066070557E-1,-6.095581055E-1,3.432006836E-1
4.141476974E1,-1.036529541E-1,3.201599121E-1,5.670166016E-2
4.146476974E1,5.279846191E-1,-3.914794922E-1,1.263427734E-1
4.151476974E1,3.250122070E-3,3.122253418E-1,-1.039428711E-1
4.156476974E1,1.748962402E-1,1.234741211E-1,1.629943848E-1
4.161476974E1,-8.580780029E-1,-8.447570801E-1,-5.620880127E-1
4.166476974E1,2.720336914E-1,9.878540039E-1,5.209655762E-1
4.171476974E1,-4.231262207E-1,-1.575317383E-1,1.636199951E-1
4.176476974E1,1.541290283E-1,-1.824951172E-2,1.214599609E-1
4.181476974E1,2.624511719E-3,1.815032959E-1,1.727752686E-1
4.186476974E1,3.202819824E-1,-2.191162109E-2,3.028869629E-1
4.191476974E1,1.174774170E-1,3.372650146E-1,2.356872559E-1
4.196476974E1,3.086853027E-1,-2.351074219E-1,2.931060791E-1
4.201476974E1,2.243804932E-1,3.006134033E-1,3.725280762E-1
4.206476974E1,1.944427490E-1,7.453308105E-1,3.535919189E-1
4.211476974E1,1.504669189E-1,-5.045013428E-1,1.049652100E-1
4.216476974E1,-2.912902832E-2,3.415527344E-1,1.562805176E-1
4.221476974E1,-5.471343994E-1,-5.258789062E-1,-1.841735840E-2
4.226476974E1,1.425170898E-1,2.548065186E-1,2.784423828E-1
4.231476974E1,-1.665649414E-1,1.601257324E-1,-1.292419434E-2
4.236476974E1,1.077117920E-1,-2.039489746E-1,5.120849609E-2
4.241476974E1,-1.103668213E-1,1.344604492E-1,1.028442383E-2
4.246476974E1,3.948059082E-1,-4.140930176E-1,-1.351013184E-1
4.251476974E1,-1.684112549E-1,1.454620361E-1,-2.047424316E-1
4.256476974E1,-6.192169189E-1,-7.518920898E-1,-5.034484863E-1
4.261476974E1,2.624511719E-3,4.344024658E-1,-2.819824219E-2
4.266476974E1,-3.266296387E-1,5.584106445E-1,9.825134277E-2
4.271476974E1,-7.859802246E-2,-4.434204102E-1,-1.283874512E-1
4.276476974E1,-8.288574219E-2,3.568115234E-1,-1.008911133E-1
4.281476974E1,1.364135742E-1,1.766052246E-1,-5.934143066E-2
4.286476974E1,3.764801025E-1,-3.187866211E-1,-2.941894531E-2
4.291476974E1,5.761718750E-2,3.238372803E-1,-1.570892334E-1
4.296476974E1,1.651306152E-1,-1.135406494E-1,-7.217407227E-2
4.301476974E1,2.011718750E-1,2.095947266E-1,-1.033325195E-1
4.306476974E1,-4.292449951E-1,-6.083374023E-1,-3.708953857E-1
4.311476974E1,2.182769775E-1,3.329925537E-1,-6.195068359E-3
4.316476974E1,-4.768829346E-1,-2.253265381E-1,-1.980133057E-1
4.321476974E1,-4.318237305E-2,-3.750000000E-1,-6.607055664E-2
4.326476974E1,3.195190430E-2,5.400848389E-1,5.120849609E-2
4.331476974E1,1.535186768E-1,-3.023071289E-1,5.401611328E-3
4.336476974E1,2.390441895E-1,-1.752319336E-1,1.457214355E-2
4.341476974E1,-2.545166016E-2,-2.008056641E-2,-1.228790283E-1
4.346476974E1,3.215026855E-1,1.290893555E-2,-7.644653320E-2
4.351476974E1,2.340698242E-2,7.080688477E-1,-8.134460449E-2
4.356476974E1,-1.457977295E-1,-6.004028320E-1,-3.721160889E-1
4.361476974E1,-1.140289307E-1,1.045227051E-1,-2.761993408E-1
4.366476974E1,-2.850799561E-1,6.537017822E-1,3.694763184E-1
4.371476974E1,-2.075042725E-1,-1.990661621E-1,7.843017578E-3
4.376476974E1,-1.286926270E-1,7.521057129E-2,1.489562988E-1
4.381476974E1,1.362609863E-2,-1.233215332E-1,2.631835938E-1
4.386476974E1,2.335357666E-1,9.597778320E-2,1.764373779E-1
4.391476974E1,2.640838623E-1,-1.880645752E-1,2.424163818E-1
4.396476974E1,3.306732178E-1,-2.180023193E-1,1.147460938E-1
4.401476974E1,2.072753906E-1,5.516815186E-1,2.644042969E-1
4.406476974E1,-2.973022461E-1,-9.052276611E-1,-2.462768555E-1
4.411476974E1,9.353637695E-3,8.613891602E-1,3.340454102E-1
4.416476974E1,-4.952239990E-1,-4.354705811E-1,-7.217407227E-2
4.421476974E1,-8.654785156E-2,1.845550537E-1,1.190185547E-1
4.426476974E1,-1.036529541E-1,2.028808594E-1,-3.002929688E-2
4.431476974E1,3.483886719E-1,-4.037017822E-1,2.066040039E-2
4.436476974E1,-8.715820312E-2,2.639617920E-1,1.457214355E-2
4.441476974E1,3.709869385E-1,-5.832977295E-1,-9.173583984E-2
4.446476974E1,6.433105469E-2,3.959197998E-1,-1.515960693E-1
4.451476974E1,1.911926270E-2,2.480773926E-1,-2.468872070E-1
4.456476974E1,-5.685272217E-1,-6.065216064E-1,-5.590515137E-1
4.461476974E1,-2.386474609E-1,6.732482910E-1,7.563781738E-2
4.466476974E1,-5.923461914E-1,-2.809143066E-1,-3.024749756E-1
4.471476974E1,-4.133605957E-2,2.532958984E-3,1.648406982E-1
4.476476974E1,-1.060943604E-1,1.717224121E-1,1.823425293E-2
4.481476974E1,2.359771729E-1,-3.535461426E-2,1.208496094E-1
4.486476974E1,1.529083252E-1,1.760101318E-1,1.061859131E-1
4.491476974E1,3.099060059E-1,-3.255157471E-1,-3.430175781E-2
4.496476974E1,1.382446289E-1,6.219329834E-1,2.631835938E-1
4.501476974E1,-6.944274902E-2,-1.398010254E-1,-3.308105469E-2
4.506476974E1,2.653045654E-1,1.046752930E-2,2.925109863E-1
4.511476974E1,-1.910095215E-1,6.115570068E-1,4.293365479E-1
4.516476974E1,-2.038421631E-1,-4.837341309E-1,7.931518555E-2
4.521476974E1,2.340698242E-2,7.154846191E-2,1.006927490E-1
4.526476974E1,1.584014893E-1,-9.033203125E-2,2.405700684E-1
4.531476974E1,1.667785645E-2,6.195068359E-3,2.729492188E-1
4.536476974E1,2.109375000E-1,-4.660186768E-1,2.515716553E-1
4.541476974E1,1.700134277E-1,1.228485107E-1,2.002563477E-1
4.546476974E1,1.651306152E-1,5.569458008E-3,-3.857421875E-2
4.551476974E1,-1.482391357E-1,1.686706543E-1,6.404113770E-2
4.556476974E1,-2.239990234E-1,2.694702148E-2,-2.835388184E-1
4.561476974E1,2.095031738E-2,1.961669922E-1,2.821197510E-1
4.566476974E1,-3.748779297E-1,-1.905059814E-1,4.998779297E-2
4.571476974E1,1.596221924E-1,7.826232910E-2,1.788787842E-1
4.576476974E1,-4.318237305E-2,3.042755127E-1,1.171875000E-1
4.581476974E1,3.410491943E-1,-1.184387207E-1,2.161407471E-1
4.586476974E1,-6.700134277E-2,1.191864014E-1,1.128997803E-1
4.591476974E1,2.042236328E-1,-4.299774170E-1,1.849822998E-1
4.596476974E1,-2.485656738E-2,7.270050049E-1,7.931518555E-2
4.601476974E1,-4.151916504E-1,-1.068939209E0,-2.590942383E-1
4.606476974E1,3.392181396E-1,5.883483887E-1,8.297729492E-2
4.611476974E1,-6.027374268E-1,4.222106934E-2,8.053588867E-2
4.616476974E1,-1.305389404E-1,-2.314453125E-1,-1.161651611E-1
4.621476974E1,-2.820281982E-1,4.038543701E-1,1.232910156E-1
4.626476974E1,2.646942139E-1,-3.627777100E-1,4.937744141E-2
4.631476974E1,1.229705811E-1,1.840209961E-2,2.784423828E-1
4.636476974E1,6.494140625E-2,-4.196166992E-3,-1.570892334E-1
4.641476974E1,2.048339844E-1,-2.338867188E-1,-5.262756348E-2
4.646476974E1,1.419067383E-1,4.038543701E-1,-9.233093262E-2
4.651476974E1,-1.696319580E-1,-1.581268311E-1,-7.034301758E-2
4.656476974E1,-1.201477051E-1,-1.935577393E-1,-3.061370850E-1
4.661476974E1,-3.046264648E-1,6.659240723E-1,2.002563477E-1
4.666476974E1,-4.060363770E-1,-4.641876221E-1,-9.477233887E-2
4.671476974E1,2.726287842E-1,-1.911163330E-1,1.764373779E-1
4.676476974E1,-1.140289307E-1,5.370330811E-1,1.031341553E-1
4.681476974E1,5.066070557E-1,-5.405426025E-1,3.212127686E-1
4.686476974E1,2.811889648E-1,3.189392090E-1,1.941528320E-1
4.691476974E1,3.764801025E-1,-3.151245117E-1,2.198028564E-1
4.696476974E1,2.317047119E-1,8.357391357E-1,2.986145020E-1
4.701476974E1,-5.789031982E-1,-1.108642578E0,-1.454925537E-1
4.706476974E1,2.017669678E-1,4.154663086E-1,2.399749756E-1
4.711476974E1,-5.703582764E-1,-3.316192627E-1,9.396362305E-2
4.716476974E1,5.691528320E-3,-1.000976562E-1,4.693603516E-2
4.721476974E1,-1.940612793E-1,3.672027588E-1,5.792236328E-2
4.726476974E1,4.736175537E-1,-2.369384766E-1,2.289733887E-1
4.731476974E1,-6.028747559E-2,1.937103271E-1,1.306304932E-1
4.736476974E1,5.200347900E-1,-2.540435791E-1,1.006927490E-1
4.741476974E1,-8.361816406E-3,2.877960205E-1,-1.680908203E-1
4.746476974E1,4.015197754E-1,4.753265381E-1,-4.957580566E-2
4.751476974E1,-7.371215820E-1,-5.093841553E-1,-6.842651367E-1
4.756476974E1,4.661560059E-2,4.044647217E-1,2.644042969E-1
4.761476974E1,-5.300445557E-1,-3.167724609E-2,6.221008301E-2
4.766476974E1,1.364135742E-1,-1.579284668E-2,1.141204834E-1
4.771476974E1,-3.583831787E-1,1.222534180E-1,-3.613281250E-2
4.776476974E1,2.439270020E-1,-2.295989990E-1,2.314147949E-1
4.781476974E1,2.139892578E-1,2.987976074E-1,1.067962646E-1
4.786476974E1,3.984832764E-1,-3.334503174E-1,7.197570801E-2
4.791476974E1,1.681823730E-1,3.763732910E-1,1.458892822E-1
4.796476974E1,-1.891784668E-1,-2.143402100E-1,9.274291992E-2
4.801476974E1,1.492462158E-1,-1.579284668E-2,-1.597595215E-2
4.806476974E1,-2.258300781E-1,3.916320801E-1,3.841400146E-1
4.811476974E1,-3.327331543E-1,3.794860840E-2,6.831359863E-2
4.816476974E1,6.912231445E-3,2.499237061E-1,1.739959717E-1
4.821476974E1,2.279663086E-2,-2.980194092E-1,-2.085876465E-2
4.826476974E1,3.960418701E-1,-5.734252930E-2,1.758270264E-1
4.831476974E1,-9.877014160E-2,-6.405639648E-2,-2.786560059E-1
4.836476974E1,5.823516846E-1,-4.727325439E-1,-1.125030518E-1
4.841476974E1,-1.592407227E-1,4.539489746E-1,-4.258728027E-1
4.846476974E1,2.799682617E-1,-3.517761230E-1,-1.497497559E-1
4.851476974E1,-1.671905518E-1,1.143035889E-1,-6.500549316E-1
4.856476974E1,-1.238098145E-1,2.297515869E-1,2.259216309E-1
4.861476974E1,-2.973022461E-1,-3.120727539E-1,-8.744812012E-2
4.866476974E1,3.012084961E-2,1.674499512E-1,1.544342041E-1
4.871476974E1,-1.140289307E-1,-1.457214355E-2,3.532409668E-2
4.876476974E1,3.337249756E-1,-3.310089111E-1,2.008666992E-1
4.881476974E1,8.143615723E-2,4.991455078E-1,2.066040039E-2
4.886476974E1,4.186248779E-1,-4.287567139E-1,1.391754150E-1
4.891476974E1,1.150360107E-1,5.895690918E-1,1.410064697E-1
4.896476974E1,-3.290710449E-1,-1.062225342E0,-3.886108398E-1
4.901476974E1,4.600524902E-2,5.541381836E-1,1.513977051E-1
4.906476974E1,-3.999176025E-1,-3.279571533E-1,-1.650390625E-1
4.911476974E1,-2.698059082E-1,-4.023742676E-2,-1.137237549E-1
4.916476974E1,-2.239990234E-1,3.604888916E-1,-1.821289062E-1
4.921476974E1,4.082489014E-1,-4.153137207E-1,-1.100616455E-1
4.926476974E1,-1.995849609E-2,3.855895996E-2,-3.979492188E-2
4.931476974E1,2.793579102E-1,-2.161712646E-1,-3.104095459E-1
4.936476974E1,-9.999084473E-2,2.279205322E-1,-1.699218750E-1
4.941476974E1,6.799316406E-2,7.948303223E-2,-2.108459473E-1
4.946476974E1,-6.528320312E-1,-1.978454590E-1,-4.930725098E-1
4.951476974E1,8.143615723E-2,5.284729004E-1,7.807922363E-2
4.956476974E1,-4.811706543E-1,-3.901672363E-2,-2.236785889E-1
4.961476974E1,1.052551270E-1,1.901245117E-2,-2.481079102E-1
4.966476974E1,-7.493591309E-2,2.822875977E-1,-9.355163574E-2
4.971476974E1,2.799682617E-1,-2.705383301E-1,-9.843444824E-2
4.976476974E1,3.893127441E-1,-7.994079590E-2,-3.125000000E-2
4.981476974E1,1.626892090E-1,-1.917266846E-1,-2.096252441E-1
4.986476974E1,2.824096680E-1,1.240692139E-1,1.006927490E-1
4.991476974E1,-2.966766357E-1,3.293304443E-1,1.000823975E-1
4.996476974E1,2.872924805E-1,-6.272888184E-1,-1.045532227E-1
5.001476974E1,-4.255828857E-1,5.822296143E-1,2.619628906E-1
5.006476974E1,-4.597778320E-1,-6.053009033E-1,-8.134460449E-2
5.011476974E1,-1.335754395E-1,1.423950195E-1,3.532409668E-2
5.016476974E1,-1.048736572E-1,2.755737305E-2,4.876708984E-2
5.021476974E1,3.520507812E-1,-2.399902344E-1,1.788787842E-1
5.026476974E1,1.584014893E-1,2.755737305E-2,2.799987793E-2
5.031476974E1,4.577331543E-1,-4.702911377E-1,-7.951354980E-2
5.036476974E1,1.144104004E-1,2.487030029E-1,-1.906890869E-1
5.041476974E1,3.685455322E-1,1.827239990E-1,1.394653320E-2
5.046476974E1,-2.582092285E-1,-1.086578369E-1,-5.407104492E-1
5.051476974E1,3.317260742E-2,8.926391602E-2,1.465148926E-1
5.056476974E1,-4.683380127E-1,-3.596496582E-2,-1.021118164E-1
5.061476974E1,2.279663086E-2,2.877807617E-2,1.342926025E-1
5.066476974E1,-1.488647461E-1,2.572479248E-1,-4.530334473E-2
5.071476974E1,3.844146729E-1,-3.511657715E-1,1.587219238E-1
5.076476974E1,1.358032227E-1,4.368438721E-1,1.868286133E-1
5.081476974E1,1.223602295E-1,-4.403533936E-1,1.306304932E-1
5.086476974E1,2.378234863E-1,1.103912354E0,3.548126221E-1
5.091476974E1,-4.970550537E-1,3.745422363E-1,3.847503662E-1
5.096476974E1,1.681823730E-1,-6.614990234E-1,1.239013672E-1
5.101476974E1,-3.333282471E-1,4.185180664E-1,1.000823975E-1
5.106476974E1,-2.105560303E-1,-5.985717773E-1,-2.024841309E-2
5.111476974E1,1.883392334E-1,2.132720947E-1,2.350769043E-1
5.116476974E1,1.370239258E-1,-1.031494141E-1,-6.546020508E-2
5.121476974E1,5.615844727E-1,-2.748107910E-1,2.350769043E-1
5.126476974E1,1.789855957E-2,7.887268066E-2,-1.784667969E-1
5.131476974E1,3.605957031E-1,-2.271575928E-1,-7.829284668E-2
5.136476974E1,1.972961426E-2,4.643402100E-1,-4.379272461E-3
5.141476974E1,-4.457397461E-1,-4.947204590E-1,-5.401000977E-1
5.146476974E1,-6.394958496E-2,5.211486816E-1,3.961181641E-2
5.151476974E1,-4.542999268E-1,-3.045654297E-2,-8.683776855E-2
5.156476974E1,-1.225891113E-1,1.454620361E-1,-7.585144043E-2
5.161476974E1,-1.231994629E-1,2.572479248E-1,-2.392578125E-2
5.166476974E1,3.544921875E-1,-4.629669189E-1,2.399749756E-1
5.171476974E1,3.622436523E-2,1.069641113E-1,9.701538086E-2
5.176476974E1,3.196716309E-1,-1.691284180E-1,2.625732422E-1
5.181476974E1,1.095275879E-1,2.181549072E-1,2.259216309E-1
5.186476974E1,-1.873779297E-2,4.527282715E-1,2.295837402E-1
5.191476974E1,-9.387207031E-2,-5.716857910E-1,-1.473083496E-1
5.196476974E1,-1.873321533E-1,5.162506104E-1,3.034973145E-1
5.201476974E1,-3.064575195E-1,-2.607574463E-1,1.061859131E-1
5.206476974E1,-8.776855469E-2,4.050750732E-1,1.672821045E-1
5.211476974E1,6.433105469E-2,-3.713226318E-1,8.724975586E-2
5.216476974E1,3.441009521E-1,-2.975463867E-3,3.694763184E-1
5.221476974E1,-1.335754395E-1,5.078125000E-2,3.166198730E-2
5.226476974E1,6.275482178E-1,-5.845184326E-1,1.843872070E-1
5.231476974E1,-2.887420654E-1,3.843078613E-1,-2.077941895E-1
5.236476974E1,-2.777557373E-1,-4.806671143E-1,-1.558685303E-1
5.241476974E1,-2.917938232E-1,-1.343078613E-1,-2.969818115E-1
5.246476974E1,-3.736572266E-1,5.944519043E-1,5.181884766E-2
5.251476974E1,-3.339538574E-1,-4.305725098E-1,-7.951354980E-2
5.256476974E1,-1.482391357E-1,4.960937500E-1,-7.339477539E-2
5.261476974E1,4.844665527E-2,-1.123199463E-1,1.294097900E-1
5.266476974E1,5.096588135E-1,-2.308197021E-1,1.770477295E-1
5.271476974E1,2.292633057E-1,2.370910645E-1,7.931518555E-2
5.276476974E1,5.432586670E-1,-3.529968262E-1,1.666564941E-1
5.281476974E1,1.272583008E-1,7.636566162E-1,3.071594238E-1
5.286476974E1,-3.192901611E-1,-1.323669434E0,-1.748046875E-1
5.291476974E1,3.496093750E-1,4.851074219E-1,3.896331787E-1
5.296476974E1,-4.219055176E-1,4.771423340E-2,6.831359863E-2
5.301476974E1,2.767944336E-2,-8.630828857E-1,5.303955078E-2
5.306476974E1,-2.038421631E-1,5.052642822E-1,1.281738281E-1
5.311476974E1,2.439270020E-1,-3.395690918E-1,8.724975586E-2
5.316476974E1,1.865081787E-1,-2.002868652E-1,2.075958252E-1
5.321476974E1,1.675720215E-1,-2.557373047E-2,3.471374512E-2
5.326476974E1,1.302947998E-1,-5.020599365E-1,-8.744812012E-2
5.331476974E1,-7.920837402E-2,4.521179199E-1,6.709289551E-2
5.336476974E1,-5.709686279E-1,-3.102416992E-1,-1.412048340E-1
5.341476974E1,1.272583008E-1,5.700225830E-1,4.085693359E-1
5.346476974E1,-4.121398926E-1,-1.263580322E-1,1.269531250E-1
5.351476974E1,8.570861816E-2,-4.573059082E-2,5.496826172E-1
5.356476974E1,-1.323547363E-1,4.136199951E-1,3.248748779E-1
5.361476974E1,2.604217529E-1,-2.955780029E-1,4.073486328E-1
5.366476974E1,2.720336914E-1,1.784515381E-1,5.539550781E-1
5.371476974E1,2.506408691E-1,1.863861084E-1,4.061279297E-1
5.376476974E1,2.793579102E-1,3.060913086E-2,5.509033203E-1
5.381476974E1,1.107482910E-1,7.758789062E-1,4.940948486E-1
5.386476974E1,5.210876465E-2,-8.551330566E-1,2.607421875E-1
5.391476974E1,-1.080322266E-2,4.441680908E-1,6.425323486E-1
5.396476974E1,-4.542999268E-1,1.790618896E-1,4.348449707E-1
5.401476974E1,-1.080322266E-2,2.084350586E-2,3.786315918E-1
5.406476974E1,-2.912902832E-2,2.340393066E-1,5.735015869E-1
5.411476974E1,5.273742676E-1,-4.617462158E-1,5.093688965E-1
5.416476974E1,1.657257080E-1,-1.416473389E-1,5.484619141E-1
5.421476974E1,1.779479980E-1,-1.226959229E-1,2.845611572E-1
5.426476974E1,1.266326904E-1,-1.117095947E-1,1.556701660E-1
5.431476974E1,1.883392334E-1,5.645141602E-1,4.720916748E-1
5.436476974E1,-2.722473145E-1,-1.514129639E-1,-5.934143066E-2
5.441476974E1,-2.142181396E-1,-9.155273438E-2,3.126525879E-1
5.446476974E1,-2.649230957E-1,1.906585693E-1,5.099639893E-1
5.451476974E1,-2.881317139E-1,1.955566406E-1,5.124206543E-1
5.456476974E1,1.522979736E-1,-1.300354004E-1,5.374603271E-1
5.461476974E1,1.840667725E-1,-1.789093018E-1,6.205291748E-1
5.466476974E1,3.783111572E-1,-1.178131104E-1,7.030029297E-1
5.471476974E1,6.616210938E-2,-3.657531738E-2,5.875549316E-1
5.476476974E1,9.671020508E-2,1.375122070E-1,8.502197266E-1
5.481476974E1,-1.274719238E-1,-1.019287109E-1,7.586059570E-1
5.486476974E1,4.785003662E-1,-8.604431152E-2,9.491882324E-1
5.491476974E1,-1.690063477E-1,1.466827393E-1,8.135833740E-1
5.496476974E1,-1.842956543E-1,-3.529968262E-1,8.801574707E-1
5.501476974E1,2.286529541E-1,3.684234619E-1,9.033813477E-1
5.506476974E1,2.035522461E-2,1.901245117E-2,8.856506348E-1
5.511476974E1,4.161834717E-1,-2.674713135E-1,9.559173584E-1
5.516476974E1,-9.020996094E-2,1.020812988E-1,4.122314453E-1
5.521476974E1,4.717864990E-1,-2.222747803E-1,5.337982178E-1
5.526476974E1,-3.523254395E-2,2.456359863E-1,5.487060547E-2
5.531476974E1,9.671020508E-2,1.894378662E-1,3.871917725E-1
5.536476974E1,-2.166595459E-1,1.460723877E-1,-1.179962158E-1
5.541476974E1,-4.726257324E-1,-4.084777832E-2,4.604949951E-1
5.546476974E1,-1.952819824E-1,-1.972351074E-1,3.034973145E-1
5.551476974E1,1.364135742E-1,2.401428223E-1,7.408752441E-1
5.556476974E1,6.301879883E-3,3.458251953E-1,5.038604736E-1
5.561476974E1,4.656677246E-1,-1.758575439E-1,6.663513184E-1
5.566476974E1,1.828308105E-1,1.436157227E-1,3.615264893E-1
5.571476974E1,2.420959473E-1,-8.970642090E-2,2.692871094E-1
5.576476974E1,2.940216064E-1,1.222427368E0,5.020294189E-1
5.581476974E1,-1.903991699E-1,-3.718566895E-2,3.493041992E-1
5.586476974E1,4.937744141E-1,-5.784149170E-1,3.511505127E-1
5.591476974E1,-3.308868408E-1,6.084899902E-1,4.323883057E-1
5.596476974E1,-2.264404297E-1,-6.834411621E-2,3.267211914E-1
5.601476974E1,8.815002441E-2,-3.890380859E-1,9.030151367E-2
5.606476974E1,4.730072021E-1,1.986083984E-1,3.993988037E-1
5.611476974E1,3.575439453E-1,3.598785400E-1,1.452789307E-1
5.616476974E1,2.023925781E-1,5.137634277E-2,1.550598145E-1
5.621476974E1,-2.119445801E-2,-1.715698242E-1,-2.401733398E-1
5.626476974E1,-8.288574219E-2,6.091156006E-1,2.161407471E-1
5.631476974E1,-4.054260254E-1,3.018341064E-1,-3.061370850E-1
5.636476974E1,5.516052246E-2,-1.282043457E-1,1.055755615E-1
5.641476974E1,-6.687011719E-1,-8.116149902E-2,7.563781738E-2
5.646476974E1,1.831054688E-4,1.962280273E-2,1.000823975E-1
5.651476974E1,-3.584289551E-2,2.511444092E-1,8.724975586E-2
5.656476974E1,3.312835693E-1,-1.416473389E-1,1.923217773E-1
5.661476974E1,2.659149170E-1,7.765197754E-2,1.898803711E-1
5.666476974E1,8.087158203E-4,-1.288146973E-1,1.807098389E-1
5.671476974E1,4.539489746E-2,5.755004883E-1,4.372863770E-1
5.676476974E1,-5.734100342E-1,-5.423736572E-1,-1.564788818E-1
5.681476974E1,1.926116943E-1,1.595001221E-1,2.912902832E-1
5.686476974E1,-4.542999268E-1,2.755737305E-1,2.460784912E-1
5.691476974E1,-5.661010742E-2,-3.578948975E-1,2.369079590E-1
5.696476974E1,-4.440307617E-2,3.238372803E-1,1.843872070E-1
5.701476974E1,2.762908936E-1,-2.803192139E-1,3.108367920E-1
5.706476974E1,3.056182861E-1,2.145385742E-2,2.662353516E-1
5.711476974E1,1.003723145E-1,1.312255859E-3,7.563781738E-2
5.716476974E1,2.048339844E-1,-4.140930176E-1,-1.179962158E-1
5.721476974E1,-7.188415527E-2,2.658081055E-1,-9.295654297E-2
5.726476974E1,-3.528900146E-1,-4.464569092E-1,-5.987396240E-1
5.731476974E1,-1.451873779E-1,-2.435302734E-2,-6.439514160E-1
5.736476974E1,-4.084777832E-1,2.218170166E-1,-4.164123535E-2
5.741476974E1,-3.504333496E-1,1.472930908E-1,-1.888580322E-1
5.746476974E1,2.095031738E-2,1.497344971E-1,-1.015014648E-1
5.751476974E1,1.901702881E-1,-1.489715576E-1,1.739959717E-1
5.756476974E1,5.866241455E-1,-1.691284180E-1,6.011962891E-3
5.761476974E1,-8.105468750E-2,3.140563965E-1,-6.912231445E-2
5.766476974E1,1.987152100E-1,2.364807129E-1,3.776550293E-2
5.771476974E1,-2.276611328E-1,5.064849854E-1,1.721649170E-1
5.776476974E1,3.012084961E-2,-1.027404785E0,-3.208007812E-1
5.781476974E1,2.329254150E-1,3.604888916E-1,3.609161377E-1
5.786476974E1,-4.200897217E-1,-6.588745117E-2,-8.866882324E-2
5.791476974E1,3.935852051E-1,-9.870910645E-1,7.843017578E-3
5.796476974E1,2.256011963E-1,4.698333740E-1,-5.201721191E-2
5.801476974E1,2.915802002E-1,-7.444763184E-2,-5.752563477E-2
5.806476974E1,3.874816895E-1,-1.764526367E-1,-1.109313965E-2
5.811476974E1,-2.630920410E-1,2.212066650E-1,-2.523803711E-1
5.816476974E1,3.734283447E-1,-8.970642090E-2,1.147460938E-1
5.821476974E1,-6.968078613E-1,-3.792724609E-1,-5.260620117E-1
5.826476974E1,-6.272888184E-2,9.597778320E-2,-2.041320801E-1
5.831476974E1,-6.112823486E-1,4.956054688E-2,-1.986236572E-1
5.836476974E1,4.844665527E-2,-4.122467041E-1,-3.979492188E-2
5.841476974E1,1.266326904E-1,2.957305908E-1,8.908081055E-2
5.846476974E1,1.779479980E-1,-7.139587402E-2,6.282043457E-2
5.851476974E1,4.534606934E-1,-1.129302979E-1,1.394653320E-2
5.856476974E1,-2.563629150E-1,5.645141602E-1,-8.010864258E-2
5.861476974E1,2.280426025E-1,1.979980469E-1,1.471099854E-1
5.866476974E1,-5.306549072E-1,3.543701172E-1,9.764099121E-2
5.871476974E1,8.998107910E-2,-7.671813965E-1,1.892700195E-1
5.876476974E1,-2.075042725E-1,3.934783936E-1,3.896331787E-1
5.881476974E1,-3.693847656E-1,1.185760498E-1,2.362976074E-1
5.886476974E1,1.541290283E-1,-5.814666748E-1,1.501770020E-1
5.891476974E1,2.909545898E-1,9.109497070E-2,1.965942383E-1
5.896476974E1,4.516143799E-1,-1.972351074E-1,2.967681885E-1
5.901476974E1,3.978576660E-1,-1.453094482E-1,6.526184082E-2
5.906476974E1,-1.995849609E-2,-2.369384766E-1,-1.802978516E-1
5.911476974E1,1.302947998E-1,1.711120605E-1,-5.628967285E-2
5.916476974E1,-9.417572021E-1,-2.821350098E-1,-6.879425049E-1
5.921476974E1,2.414855957E-1,3.641510010E-1,-1.369323730E-1
5.926476974E1,-4.885101318E-1,-2.557373047E-2,-1.048278809E-2
5.931476974E1,-1.115875244E-1,2.236480713E-1,2.310180664E-2
5.936476974E1,-6.088256836E-2,-3.901672363E-2,-5.628967285E-2
5.941476974E1,2.940216064E-1,-3.884277344E-1,1.807098389E-1
5.946476974E1,2.872924805E-1,1.381378174E-1,-9.906005859E-2
5.951476974E1,4.112243652E-2,-2.027282715E-1,-3.063964844E-2
5.956476974E1,3.134155273E-2,3.171234131E-1,8.847045898E-2
5.961476974E1,-5.257568359E-1,-4.018707275E-1,-5.700378418E-1
5.966476974E1,2.279663086E-2,8.314514160E-2,-2.041320801E-1
5.971476974E1,-2.618713379E-1,9.780883789E-2,3.150939941E-1
5.976476974E1,1.179504395E-2,-3.065795898E-1,3.603057861E-1
5.981476974E1,-1.299133301E-1,3.665924072E-1,8.908081055E-2
5.986476974E1,1.932220459E-1,-1.898956299E-1,4.794311523E-1
5.991476974E1,3.654937744E-1,-2.862548828E-2,2.411956787E-1
5.996476974E1,-1.263427734E-2,1.515655518E-1,1.458892822E-1
6.001476974E1,2.310943604E-1,-2.234954834E-1,-5.262756348E-2
6.006476974E1,-2.459869385E-1,1.558380127E-1,-2.035217285E-1
6.011476974E1,-6.296081543E-1,-4.501342773E-1,-3.153076172E-1
6.016476974E1,-1.814270020E-2,3.329925537E-1,-4.591369629E-2
6.021476974E1,-2.869110107E-1,2.871704102E-1,3.837585449E-2
6.026476974E1,-3.162231445E-1,-2.302246094E-1,-3.586730957E-1
6.031476974E1,2.549285889E-1,2.438049316E-1,9.519958496E-2
6.036476974E1,1.657257080E-1,1.204071045E-1,3.206024170E-1
6.041476974E1,4.565124512E-1,-9.887695312E-2,2.136993408E-1
6.046476974E1,2.561492920E-1,-1.789093018E-1,1.150512695E-2
6.051476974E1,1.419067383E-1,2.230377197E-1,2.479095459E-1
6.056476974E1,-3.107452393E-1,7.331237793E-1,1.690979004E-1
6.061476974E1,-4.830017090E-1,-1.011520386E0,-2.010650635E-1
6.066476974E1,-2.423095703E-2,1.051483154E-1,2.210235596E-1
6.071476974E1,-4.775085449E-1,-2.975463867E-3,5.426025391E-2
6.076476974E1,-2.343750000E-1,-3.688812256E-1,-5.262756348E-2
6.081476974E1,1.535186768E-1,-1.275939941E-1,-1.719665527E-2
6.086476974E1,2.066650391E-1,1.625671387E-1,1.581115723E-1
6.091476974E1,1.461791992E-1,1.625671387E-1,-3.674316406E-2
6.096476974E1,2.194976807E-1,1.827239990E-1,-6.423950195E-2
6.101476974E1,4.295349121E-2,7.704162598E-2,-1.063842773E-1
6.106476974E1,-5.092773438E-1,-7.366333008E-1,-3.372955322E-1
6.111476974E1,4.094696045E-1,7.582092285E-2,4.386901855E-2
6.116476974E1,4.417419434E-2,-1.392059326E-1,7.380676270E-2
6.121476974E1,-4.684448242E-2,3.348236084E-1,-1.497497559E-1
6.126476974E1,9.793090820E-2,4.521179199E-1,-5.201721191E-2
6.131476974E1,2.933959961E-1,4.039001465E-2,7.563781738E-2
6.136476974E1,4.882659912E-1,3.367614746E-2,1.575012207E-1
6.141476974E1,1.186981201E-1,-5.340576172E-4,-1.234893799E-1
6.146476974E1,-1.995849609E-2,5.767364502E-1,2.014923096E-1
6.151476974E1,-5.129394531E-1,-3.316192627E-1,4.020690918E-2
6.156476974E1,3.439331055E-2,-4.928894043E-1,-2.786560059E-1
6.161476974E1,-2.301025391E-1,6.732482910E-1,1.483306885E-1
6.166476974E1,-4.903259277E-1,-3.487243652E-1,1.153411865E-1
6.171476974E1,3.683471680E-2,-3.750000000E-1,2.711181641E-1
6.176476974E1,3.239440918E-1,8.804321289E-2,1.568908691E-1
6.181476974E1,6.403808594E-1,1.312255859E-3,3.651885986E-1
6.186476974E1,4.742279053E-1,-1.300354004E-1,-1.048278809E-2
6.191476974E1,4.271850586E-1,-4.238739014E-1,3.715515137E-2
6.196476974E1,-1.433563232E-1,-1.569061279E-1,-2.468872070E-1
6.201476974E1,-7.597351074E-1,-3.340606689E-1,-3.739471436E-1
6.206476974E1,2.115478516E-1,8.449096680E-1,1.862030029E-1
6.211476974E1,7.350158691E-2,1.326293945E-1,5.401611328E-3
6.216476974E1,5.577087402E-2,-3.554382324E-1,-9.173583984E-2
6.221476974E1,7.838439941E-2,3.146820068E-1,-6.484985352E-2
6.226476974E1,2.549285889E-1,1.876068115E-1,4.386901855E-2
6.231476974E1,2.848510742E-1,3.262786865E-1,1.862030029E-1
6.236476974E1,3.715972900E-1,3.659820557E-1,-8.073425293E-2
6.241476974E1,5.536346436E-1,-3.230285645E-2,2.943267822E-1
6.246476974E1,2.029418945E-3,4.362335205E-1,1.037445068E-1
6.251476974E1,-6.302185059E-1,-2.180023193E-1,3.462677002E-1
6.256476974E1,3.624267578E-1,3.366699219E-1,3.285369873E-1
6.261476974E1,-5.141601562E-1,2.065429688E-1,2.204132080E-1
6.266476974E1,-1.244201660E-1,-6.303405762E-1,-4.591369629E-2
6.271476974E1,-4.867553711E-2,3.562164307E-1,5.915832520E-2
6.276476974E1,1.199188232E-1,2.425842285E-1,-8.651733398E-3
6.281476974E1,1.981048584E-1,-1.080322266E-1,3.059387207E-1
6.286476974E1,2.237701416E-1,-2.784729004E-1,9.274291992E-2
6.291476974E1,4.478454590E-2,-2.809143066E-1,-5.445861816E-2
6.296476974E1,-3.541107178E-1,-1.379852295E-1,-1.631927490E-1
6.301476974E1,-7.145233154E-1,-5.564270020E-1,-6.354064941E-1
6.306476974E1,-1.989440918E-1,6.659240723E-1,-2.096252441E-1
6.311476974E1,-2.985229492E-1,-4.996185303E-1,-3.971710205E-1
6.316476974E1,1.284790039E-1,2.877807617E-2,-2.951507568E-1
6.321476974E1,-2.363586426E-2,3.500976562E-1,-1.473083496E-1
6.326476974E1,2.109375000E-1,1.228485107E-1,-5.628967285E-2
6.331476974E1,3.624267578E-1,3.250579834E-1,2.515716553E-1
6.336476974E1,2.188720703E-1,1.796722412E-1,-8.866882324E-2
6.341476974E1,1.565704346E-1,2.529754639E-1,2.198028564E-1
6.346476974E1,-3.608245850E-1,7.911529541E-1,3.089904785E-1
6.351476974E1,-1.439666748E-1,-7.231903076E-1,-6.912231445E-2
6.356476974E1,-2.276611328E-1,-4.084777832E-2,1.868286133E-1
6.361476974E1,-2.838592529E-1,-1.330871582E-1,4.754638672E-2
6.366476974E1,-2.416992188E-1,5.383300781E-2,4.083251953E-2
6.371476974E1,5.088806152E-2,-1.092529297E-1,-1.414489746E-2
6.376476974E1,-1.995849609E-2,2.322082520E-1,8.969116211E-2
6.381476974E1,1.272583008E-1,-3.249053955E-1,1.272583008E-2
6.386476974E1,3.256225586E-2,1.124725342E-1,-8.378601074E-2
6.391476974E1,-2.154388428E-1,3.916931152E-2,-1.900787354E-1
6.396476974E1,-2.136077881E-1,-6.737060547E-1,-2.786560059E-1
6.401476974E1,-2.789764404E-1,2.065429688E-1,-3.409576416E-1
6.406476974E1,2.207183838E-1,-4.843444824E-1,-3.002929688E-2
6.411476974E1,-1.268615723E-1,9.246826172E-3,-2.615509033E-1
6.416476974E1,1.095275879E-1,1.662292480E-1,2.149200439E-1
6.421476974E1,3.282318115E-1,4.348754883E-3,-2.148437500E-2
6.426476974E1,2.133789062E-1,4.906005859E-1,3.542022705E-1
6.431476974E1,4.241333008E-1,-1.508026123E-1,1.978149414E-1
6.436476974E1,-6.700134277E-2,1.778259277E-1,2.554321289E-2
6.441476974E1,-3.218078613E-2,7.282257080E-1,2.992248535E-1
6.446476974E1,-2.539215088E-1,-7.555694580E-1,-1.204376221E-1
6.451476974E1,-1.203918457E-2,-1.233215332E-1,2.546234131E-1
6.456476974E1,-4.878845215E-1,8.926391602E-2,-3.753662109E-3
6.461476974E1,2.462768555E-2,-7.017517090E-2,3.105163574E-2
6.466476974E1,-4.272460938E-4,2.877960205E-1,-1.076049805E-1
6.471476974E1,2.488098145E-1,-2.008972168E-1,-4.652404785E-2
6.476476974E1,-1.037597656E-3,-2.473297119E-1,2.738952637E-2
6.481476974E1,-3.706359863E-2,-3.071899414E-1,-3.421783447E-1
6.486476974E1,1.423645020E-2,-1.300354004E-1,-2.945251465E-1
6.491476974E1,-3.571624756E-1,3.367614746E-2,-4.228210449E-1
6.496476974E1,3.561401367E-2,1.081848145E-1,-4.356384277E-1
6.501476974E1,-1.574096680E-1,-1.275939941E-1,-1.424255371E-1
6.506476974E1,-3.247833252E-1,-2.894744873E-1,-4.747467041E-1
6.511476974E1,1.883392334E-1,2.450256348E-1,1.562805176E-1
6.516476974E1,1.828308105E-1,2.474822998E-1,7.075500488E-2
6.521476974E1,4.858245850E-1,-3.865966797E-1,3.926849365E-1
6.526476974E1,2.340698242E-2,-4.389953613E-2,1.605529785E-1
6.531476974E1,1.484680176E-2,-2.051696777E-1,7.014465332E-2
6.536476974E1,-2.099456787E-1,1.154006958E0,1.013031006E-1
6.541476974E1,-3.657226562E-1,-9.095153809E-1,-2.453613281E-2
6.546476974E1,2.194976807E-1,-3.718566895E-2,3.468627930E-1
6.551476974E1,-2.710266113E-1,3.006134033E-1,1.379547119E-1
6.556476974E1,-7.127380371E-2,4.466247559E-2,3.609161377E-1
6.561476974E1,-4.928588867E-2,-1.587524414E-1,-4.530334473E-2
6.566476974E1,1.767272949E-1,-1.947937012E-1,1.642150879E-1
6.571476974E1,1.193084717E-1,2.340393066E-1,-1.570892334E-1
6.576476974E1,1.254119873E-1,-1.440887451E-1,-7.951354980E-2
6.581476974E1,-1.329803467E-1,-2.069091797E-2,-2.761993408E-1
6.586476974E1,-1.415252686E-1,1.729431152E-1,5.548095703E-2
6.591476974E1,-3.388366699E-1,-6.914215088E-1,-6.103515625E-1
6.596476974E1,9.060668945E-2,2.829132080E-1,2.799987793E-2
6.601476974E1,-5.385894775E-1,1.430206299E-1,-2.725372314E-1
6.606476974E1,2.072753906E-1,5.137634277E-2,2.534027100E-1
6.611476974E1,-1.183166504E-1,1.081848145E-1,-2.633819580E-1
6.616476974E1,2.952423096E-1,-9.704589844E-2,1.575012207E-1
6.621476974E1,1.877288818E-1,3.360443115E-1,7.746887207E-2
6.626476974E1,5.149841309E-2,1.986083984E-1,7.232666016E-3
6.631476974E1,1.553497314E-1,3.592681885E-1,1.638793945E-2
6.636476974E1,-3.577728271E-1,7.618255615E-1,2.228698730E-1
6.641476974E1,2.933959961E-1,-1.513046265E0,-1.485290527E-1
6.646476974E1,-2.502593994E-1,5.217590332E-1,4.012298584E-1
6.651476974E1,-1.176910400E-1,-8.604431152E-2,1.171875000E-1
6.656476974E1,1.009826660E-1,1.772308350E-1,2.210235596E-1
6.661476974E1,-7.005310059E-2,2.981719971E-1,7.075500488E-2
6.666476974E1,4.277954102E-1,-1.966247559E-1,2.289733887E-1
6.671476974E1,5.691528320E-3,2.841339111E-1,6.037902832E-2
6.676476974E1,1.816101074E-1,-2.118988037E-1,-1.418151855E-1
6.681476974E1,9.548950195E-2,3.610992432E-1,-1.277618408E-1
6.686476974E1,-3.535003662E-1,-5.771942139E-1,-6.824340820E-1
6.691476974E1,-6.700134277E-2,9.597778320E-2,-2.126770020E-1
6.696476974E1,-5.563049316E-1,2.847290039E-1,-1.900787354E-1
6.701476974E1,-3.950500488E-2,-2.740478516E-2,6.526184082E-2
6.706476974E1,-6.028747559E-2,5.156402588E-1,2.430267334E-1
6.711476974E1,2.427062988E-1,-1.269836426E-1,2.491302490E-1
6.716476974E1,3.831939697E-1,1.417999268E-1,2.802886963E-1
6.721476974E1,2.951049805E-2,2.572631836E-2,1.819458008E-1
6.726476974E1,-1.019287109E-2,2.847290039E-1,1.214599609E-1
6.731476974E1,-4.341278076E-1,-1.239166260E-1,1.129150391E-3
6.736476974E1,3.367767334E-1,-7.872009277E-2,1.251220703E-1
6.741476974E1,-1.170959473E-1,3.049011230E-1,3.163299561E-1
6.746476974E1,-1.140289307E-1,-1.043701172E-1,1.272583008E-2
6.751476974E1,-6.394958496E-2,3.348236084E-1,1.220703125E-1
6.756476974E1,1.107482910E-1,-1.550903320E-1,-1.414489746E-2
6.761476974E1,3.410491943E-1,-2.283782959E-1,1.544342041E-1
6.766476974E1,3.795318604E-1,-1.795196533E-1,-1.448669434E-1
6.771476974E1,1.138153076E-1,-4.519653320E-1,-3.690643311E-1
6.776476974E1,-2.337646484E-1,2.377014160E-1,-2.810974121E-1
6.781476974E1,-3.400573730E-1,-2.027282715E-1,-6.891632080E-1
6.786476974E1,2.462768555E-2,3.629302979E-1,-3.012542725E-1
6.791476974E1,-3.993072510E-1,-3.047485352E-1,-3.776092529E-1
6.796476974E1,1.516876221E-1,-4.122467041E-1,-7.095336914E-2
6.801476974E1,-5.844116211E-2,4.154663086E-1,1.701354980E-2
6.806476974E1,4.632263184E-1,-2.222747803E-1,2.802886963E-1
6.811476974E1,2.817993164E-1,9.597778320E-2,2.534027100E-1
6.816476974E1,4.638366699E-1,-6.027221680E-3,2.393493652E-1
6.821476974E1,9.976196289E-2,1.533966064E-1,1.629943848E-1
6.826476974E1,-2.588043213E-1,4.710388184E-2,2.057647705E-1
6.831476974E1,9.304809570E-2,-4.507446289E-1,3.410339355E-2
6.836476974E1,-2.942352295E-1,6.225585938E-1,2.619628906E-1
6.841476974E1,-5.697479248E-1,-6.132354736E-1,-8.041381836E-3
6.846476974E1,3.927612305E-2,3.794250488E-1,1.287841797E-1
6.851476974E1,-5.599975586E-2,1.466827393E-1,2.066040039E-2
6.856476974E1,4.992675781E-1,-1.685180664E-1,4.073486328E-1
6.861476974E1,-1.042633057E-1,1.252899170E-1,-7.400512695E-2
6.866476974E1,2.622528076E-1,-7.439575195E-1,-8.561706543E-2
6.871476974E1,-1.549682617E-1,9.048461914E-2,-4.350433350E-1
6.876476974E1,8.998107910E-2,1.356811523E-1,-3.433990479E-1
6.881476974E1,-2.527008057E-1,4.348754883E-3,-5.975189209E-1
6.886476974E1,-2.691955566E-1,4.325714111E-1,1.153411865E-1
6.891476974E1,-1.983337402E-1,7.765197754E-2,-1.173858643E-1
6.896476974E1,1.663513184E-1,-2.680969238E-1,8.847045898E-2
6.901476974E1,-1.629028320E-1,1.931152344E-1,-2.532958984E-3
6.906476974E1,2.799682617E-1,-1.984558105E-1,1.287841797E-1
6.911476974E1,1.944427490E-1,5.767364502E-1,1.831665039E-1
6.916476974E1,2.958526611E-1,-5.185546875E-1,1.013031006E-1
6.921476974E1,1.254119873E-1,1.403854370E0,3.267211914E-1
6.926476974E1,-2.129974365E-1,1.314086914E-1,5.380706787E-1
6.931476974E1,2.347564697E-1,-4.360809326E-1,1.996459961E-1
6.936476974E1,-5.880737305E-1,-2.876434326E-1,-7.522583008E-2
6.941476974E1,1.301574707E-2,-4.085845947E-1,-7.585144043E-2
6.946476974E1,-2.875213623E-1,5.242004395E-1,4.791259766E-3
6.951476974E1,2.262115479E-1,-3.102416992E-1,-9.872436523E-3
6.956476974E1,1.138153076E-1,1.332397461E-1,1.813201904E-1
6.961476974E1,7.716369629E-2,-1.831817627E-1,-1.338806152E-1
6.966476974E1,-6.088256836E-2,-1.037750244E-1,-1.467132568E-1
6.971476974E1,-1.342010498E-1,4.686126709E-1,1.715545654E-1
6.976476974E1,-4.292449951E-1,-9.938049316E-1,-8.650817871E-1
6.981476974E1,2.964630127E-1,6.292724609E-1,1.886596680E-1
6.986476974E1,-4.078674316E-1,-1.068115234E-1,-4.286193848E-2
6.991476974E1,8.143615723E-2,-1.404266357E-1,-1.033325195E-1
6.996476974E1,-1.732940674E-1,2.627410889E-1,2.676391602E-2
7.001476974E1,2.701873779E-1,-2.864227295E-1,5.975341797E-2
7.006476974E1,2.769165039E-1,2.352600098E-1,3.725280762E-1
7.011476974E1,5.393981934E-2,8.253479004E-2,-3.735351562E-2
7.016476974E1,2.720336914E-1,2.059326172E-1,2.350769043E-1
7.021476974E1,-2.985229492E-1,3.201599121E-1,-4.469299316E-2
7.026476974E1,2.518615723E-1,-8.013763428E-1,-2.636718750E-2
7.031476974E1,-2.924194336E-1,2.462463379E-1,2.424163818E-1
7.036476974E1,-3.315124512E-1,-4.281311035E-1,-8.651733398E-3
7.041476974E1,-1.409149170E-1,-7.322692871E-2,1.091003418E-2
7.046476974E1,1.626892090E-1,3.054962158E-1,2.234802246E-1
7.051476974E1,6.921386719E-2,-2.454833984E-1,-9.155273438E-5
7.056476974E1,2.591857910E-1,-2.131195068E-1,1.025238037E-1
7.061476974E1,-4.623413086E-2,-1.074371338E-1,-2.248992920E-1
7.066476974E1,2.646942139E-1,2.450256348E-1,-3.979492188E-2
7.071476974E1,-6.394958496E-2,-1.208801270E-1,-4.087677002E-1
7.076476974E1,6.005859375E-2,5.569458008E-3,-2.536163330E-1
7.081476974E1,-2.960815430E-1,1.674499512E-1,-3.702850342E-1
7.086476974E1,-2.514801025E-1,-6.588745117E-2,-2.529907227E-1
7.091476974E1,-4.089355469E-3,2.890167236E-1,-3.063964844E-2
7.096476974E1,9.353637695E-3,-2.735900879E-1,-9.721374512E-2
7.101476974E1,3.129577637E-1,-2.522125244E-1,9.947204590E-2
7.106476974E1,1.339721680E-1,4.863281250E-1,1.000823975E-1
7.111476974E1,3.227233887E-1,-3.529968262E-1,8.724975586E-2
7.116476974E1,4.295349121E-2,1.111862183E0,7.746887207E-2
7.121476974E1,-2.105560303E-1,-5.997924805E-1,-9.417724609E-2
7.126476974E1,9.242248535E-2,1.857757568E-1,1.862030029E-1
7.131476974E1,-3.608245850E-1,8.436584473E-2,8.480834961E-2
7.136476974E1,-1.641235352E-1,-2.766418457E-1,-6.851196289E-2
7.141476974E1,4.539489746E-2,-4.328918457E-2,3.288269043E-2
7.146476974E1,2.909545898E-1,-1.318664551E-1,1.013031006E-1
7.151476974E1,2.017669678E-1,-1.636352539E-1,-3.158569336E-3
7.156476974E1,2.225494385E-1,-1.825714111E-1,-1.002807617E-1
7.161476974E1,-1.329803467E-1,3.238372803E-1,-1.772460938E-1
7.166476974E1,-3.461761475E-1,-6.333923340E-1,-3.971710205E-1
7.171476974E1,-7.188415527E-2,8.131408691E-2,-5.480499268E-1
7.176476974E1,-1.910095215E-1,1.062377930E0,-5.874633789E-2
7.181476974E1,-2.123870850E-1,-4.043121338E-1,-1.625823975E-1
7.186476974E1,4.661560059E-2,-2.740478516E-2,-5.140686035E-2
7.191476974E1,1.590118408E-1,-2.503662109E-1,2.799987793E-2
7.196476974E1,2.317047119E-1,-1.392059326E-1,2.136993408E-1
7.201476974E1,5.271911621E-2,4.405212402E-2,-2.575683594E-2
7.206476974E1,1.309204102E-1,-1.892852783E-1,1.147460938E-1
7.211476974E1,-5.111694336E-2,1.068481445E0,2.332458496E-1
7.216476974E1,-1.769561768E-1,-7.549591064E-1,-3.073730469E-1
7.221476974E1,2.561492920E-1,9.170532227E-2,2.766265869E-1
7.226476974E1,-7.285614014E-1,-3.841552734E-1,2.069854736E-1
7.231476974E1,9.120178223E-2,-2.418212891E-1,2.491302490E-1
7.236476974E1,-2.178955078E-2,3.116149902E-1,3.114318848E-1
7.241476974E1,4.002990723E-1,-1.245422363E-1,2.906646729E-1
7.246476974E1,9.120178223E-2,-1.428680420E-1,9.519958496E-2
7.251476974E1,2.158203125E-1,-4.512023926E-2,-7.431030273E-3
7.256476974E1,3.439331055E-2,2.285308838E-1,-6.851196289E-2
7.261476974E1,2.799682617E-1,3.159027100E-1,2.979888916E-1
7.266476974E1,-1.019287109E-2,-5.845184326E-1,-5.975189209E-1
7.271476974E1,1.687927246E-1,8.436584473E-2,3.884124756E-1
7.276476974E1,-5.068206787E-1,2.187652588E-1,-1.705322266E-1
7.281476974E1,1.667785645E-2,-3.591156006E-1,2.799987793E-2
7.286476974E1,-1.385498047E-2,5.254211426E-1,1.049652100E-1
7.291476974E1,3.135681152E-1,-2.479248047E-1,1.972045898E-1
7.296476974E1,2.274322510E-1,6.787109375E-2,2.308044434E-1
7.301476974E1,-7.737731934E-2,-2.137298584E-1,6.404113770E-2
7.306476974E1,-1.995849609E-2,7.178344727E-1,3.871917725E-1
7.311476974E1,-3.272247314E-1,-6.743164062E-1,-2.646026611E-1
7.316476974E1,-8.898925781E-2,3.348236084E-1,4.366607666E-1
7.321476974E1,-2.594299316E-1,-4.389953613E-2,1.996459961E-1
7.326476974E1,2.157592773E-2,-5.856323242E-2,2.564544678E-1
7.331476974E1,-1.019287109E-2,3.245544434E-2,1.458892822E-1
7.336476974E1,5.127105713E-1,-3.982086182E-1,3.377075195E-1
7.341476974E1,-3.767395020E-2,-9.277343750E-2,-1.353454590E-2
7.346476974E1,3.202819824E-1,-2.894744873E-1,1.123046875E-1
7.351476974E1,-6.333923340E-2,-6.039428711E-2,-2.395477295E-1
7.356476974E1,4.571228027E-1,5.742797852E-1,1.880493164E-1
7.361476974E1,-5.611877441E-1,-2.424316406E-1,-8.553161621E-1
7.366476974E1,2.340698242E-2,-9.078979492E-3,2.136993408E-1
7.371476974E1,-3.400573730E-1,1.802825928E-1,-1.570892334E-1
7.376476974E1,-2.087249756E-1,-5.533599854E-1,-5.996704102E-2
7.381476974E1,2.891387939E-1,1.570587158E-1,3.083953857E-1
7.386476974E1,4.844665527E-2,3.971405029E-1,9.152221680E-2
7.391476974E1,3.422698975E-1,-1.954040527E-1,2.674560547E-1
7.396476974E1,-3.645324707E-2,1.582794189E-1,5.059814453E-2
7.401476974E1,1.241912842E-1,5.376434326E-1,7.380676270E-2
7.406476974E1,-2.398681641E-1,-9.913635254E-1,-2.951507568E-1
7.411476974E1,-1.342010498E-1,9.414215088E-1,2.002563477E-1
7.416476974E1,-4.115295410E-1,-2.357177734E-1,1.501770020E-1
7.421476974E1,-3.340148926E-2,-1.465301514E-1,1.324462891E-1
7.426476974E1,-1.024322510E-1,2.193756104E-1,1.800994873E-1
7.431476974E1,4.668884277E-1,-1.807403564E-1,1.226806641E-1
7.436476974E1,2.732543945E-1,-1.996765137E-1,3.410339355E-2
7.441476974E1,2.573699951E-1,-2.155609131E-1,-3.613281250E-2
7.446476974E1,2.279663086E-2,1.046752930E-2,-3.171386719E-1
7.451476974E1,3.043975830E-1,3.360443115E-1,5.181884766E-2
7.456476974E1,-4.316864014E-1,-4.757843018E-1,-6.396789551E-1
7.461476974E1,-1.325988770E-2,-1.457214355E-2,-1.369323730E-1
7.466476974E1,-6.467132568E-1,7.765197754E-2,-1.045532227E-1
7.471476974E1,-8.227539062E-2,-2.283782959E-1,-3.195800781E-1
7.476476974E1,-7.615661621E-2,3.311614990E-1,-6.729125977E-2
7.481476974E1,3.630523682E-1,-1.556854248E-1,-7.339477539E-2
7.486476974E1,9.548950195E-2,1.240692139E-1,1.150512695E-2
7.491476974E1,-2.729797363E-2,-1.349182129E-1,-7.585144043E-2
7.496476974E1,1.455841064E-1,1.019012451E0,2.509613037E-1
7.501476974E1,-2.252197266E-1,-2.680969238E-1,3.349304199E-2
7.506476974E1,5.944824219E-2,-8.368072510E-1,-3.391265869E-1
7.511476974E1,-2.759094238E-1,6.708068848E-1,1.654357910E-1
7.516476974E1,-4.170227051E-1,-1.556854248E-1,3.529815674E-1
7.521476974E1,-2.667236328E-2,-1.825714111E-1,3.004455566E-1
7.526476974E1,1.486206055E-1,1.228485107E-1,3.255004883E-1
7.531476974E1,4.577331543E-1,-4.702911377E-1,1.263427734E-1
7.536476974E1,-4.989624023E-2,-9.399414062E-2,3.961181641E-2
7.541476974E1,-5.416870117E-2,-3.045654297E-2,-1.485290527E-1
7.546476974E1,8.815002441E-2,2.914581299E-1,1.141204834E-1
7.551476974E1,-2.765350342E-1,-4.611206055E-1,-4.002075195E-1
7.556476974E1,6.301879883E-3,-2.130126953E-2,-1.204376221E-1
7.561476974E1,-3.376159668E-1,4.588317871E-2,3.349304199E-2
7.566476974E1,-5.844116211E-2,-3.718566895E-2,-1.143188477E-1
7.571476974E1,1.376342773E-1,2.266998291E-1,-7.019042969E-4
7.576476974E1,2.030029297E-1,1.821136475E-1,-4.347229004E-2
7.581476974E1,4.565124512E-1,-1.178131104E-1,1.025238037E-1
7.586476974E1,-8.654785156E-2,1.460723877E-1,4.205322266E-2
7.591476974E1,3.972625732E-1,4.527282715E-2,3.951263428E-1
7.596476974E1,-2.856903076E-1,4.649353027E-1,1.568908691E-1
7.601476974E1,9.304809570E-2,-5.325927734E-1,-2.047424316E-1
7.606476974E1,-1.537475586E-1,4.215698242E-1,1.666564941E-1
7.611476974E1,-1.720733643E-1,3.753662109E-3,1.996459961E-1
7.616476974E1,-8.972167969E-3,-8.482360840E-2,2.583007812E-1
7.621476974E1,4.815521240E-1,-6.466674805E-2,1.000823975E-1
7.626476974E1,4.552917480E-1,-2.974243164E-1,3.059387207E-1
7.631476974E1,4.058074951E-1,-4.537963867E-1,9.519958496E-2
7.636476974E1,1.584014893E-1,-2.644348145E-1,-5.323791504E-2
7.641476974E1,-3.340148926E-2,2.279205322E-1,1.272583008E-2
7.646476974E1,-3.027954102E-1,-5.765838623E-1,-2.481079102E-1
7.651476974E1,-2.563629150E-1,-8.848571777E-2,-4.710693359E-1
7.656476974E1,2.279663086E-2,9.658813477E-2,-1.424255371E-1
7.661476974E1,-6.639099121E-2,-7.261657715E-2,-2.413940430E-1
7.666476974E1,3.031768799E-1,6.781311035E-1,4.815673828E-2
7.671476974E1,3.439331055E-2,2.322082520E-1,-2.514648438E-2
7.676476974E1,4.791107178E-1,-1.092529297E-1,1.776580811E-1
7.681476974E1,-2.160491943E-1,1.356811523E-1,6.587219238E-2
7.686476974E1,2.848510742E-1,-1.984558105E-1,3.346557617E-1
7.691476974E1,-6.479339600E-1,7.147979736E-1,1.904907227E-1
7.696476974E1,-1.507568359E-2,-8.172607422E-1,1.862030029E-1
7.701476974E1,-6.302185059E-1,7.557067871E-1,2.912902832E-1
7.706476974E1,-4.298553467E-1,-5.917358398E-2,2.051544189E-1
7.711476974E1,-5.538940430E-2,-1.520233154E-1,3.401489258E-1
7.716476974E1,3.317260742E-2,2.163238525E-1,3.468627930E-1
7.721476974E1,3.251647949E-1,-6.712341309E-2,2.973937988E-1
7.726476974E1,1.003723145E-1,2.615203857E-1,2.356872559E-1
7.731476974E1,3.251647949E-1,-4.886169434E-1,1.348876953E-1
7.736476974E1,-8.593750000E-2,2.303771973E-1,-5.599975586E-3
7.741476974E1,8.132934570E-3,-1.245422363E-1,1.739501953E-3
7.746476974E1,-1.427459717E-1,-4.939270020E-2,-5.028381348E-1
7.751476974E1,-4.017639160E-1,3.702545166E-1,3.593444824E-2
7.756476974E1,-3.473968506E-1,-1.911163330E-1,-3.275146484E-1
7.761476974E1,2.767944336E-2,-8.482360840E-2,1.306304932E-1
7.766476974E1,1.606750488E-2,4.185180664E-1,1.477355957E-1
7.771476974E1,3.123474121E-1,-2.271575928E-1,2.839508057E-1
7.776476974E1,8.082580566E-2,5.791778564E-1,2.540130615E-1
7.781476974E1,1.248168945E-1,5.627441406E-2,1.690979004E-1
7.786476974E1,6.982421875E-2,8.058013916E-1,6.107635498E-1
7.791476974E1,-3.455505371E-1,-2.351074219E-1,2.088165283E-1
7.796476974E1,-1.019287109E-2,-1.593475342E-1,2.399749756E-1
7.801476974E1,-4.377899170E-1,1.650085449E-1,3.255004883E-1
7.806476974E1,-1.818389893E-1,4.100036621E-2,3.841400146E-1
7.811476974E1,9.060668945E-2,1.045227051E-1,4.061279297E-1
7.816476974E1,2.573699951E-1,-7.933044434E-2,2.546234131E-1
7.821476974E1,2.347564697E-1,-1.978454590E-1,2.283630371E-1
7.826476974E1,1.345825195E-1,-2.308197021E-1,1.721649170E-1
7.831476974E1,-5.966186523E-2,-2.338867188E-1,-1.198272705E-1
7.836476974E1,5.699157715E-2,2.181549072E-1,8.053588867E-2
7.841476974E1,-2.447662354E-1,-6.405639648E-2,-3.238525391E-1
7.846476974E1,-7.615661621E-2,-7.749938965E-2,-3.568420410E-1
7.851476974E1,-4.683380127E-1,1.657104492E-2,1.150512695E-2
7.856476974E1,-2.508697510E-1,-1.312561035E-1,-2.505493164E-1
7.861476974E1,-1.012115479E-1,2.224273682E-1,1.788787842E-1
7.866476974E1,2.066650391E-1,-5.245971680E-2,1.898803711E-1
7.871476974E1,2.274322510E-1,2.053222656E-1,4.012298584E-1
7.876476974E1,3.593750000E-1,-1.917266846E-1,4.659881592E-1
7.881476974E1,4.844665527E-2,2.816925049E-1,2.912902832E-1
7.886476974E1,8.132934570E-3,1.403244019E0,5.838775635E-1
7.891476974E1,3.744506836E-2,-9.779205322E-1,2.466888428E-1
7.896476974E1,-3.889465332E-2,-1.898956299E-1,3.688659668E-1
7.901476974E1,-2.319335938E-1,5.137634277E-2,1.917114258E-1
7.906476974E1,2.109375000E-1,-2.406005859E-1,2.576751709E-1
7.911476974E1,-4.072570801E-1,-3.261260986E-1,4.754638672E-2
7.916476974E1,3.764801025E-1,-2.424316406E-1,1.703186035E-1
7.921476974E1,1.461791992E-1,2.413635254E-1,-1.109313965E-2
7.926476974E1,1.858978271E-1,-4.849548340E-1,-1.442718506E-1
7.931476974E1,-3.584289551E-2,-9.643554688E-2,-1.540374756E-1
7.936476974E1,2.188720703E-1,5.113677979E-1,2.861022949E-2
7.941476974E1,-1.867370605E-1,-3.713226318E-1,-5.077362061E-1
7.946476974E1,-1.231994629E-1,4.344177246E-2,-3.674316406E-2
7.951476974E1,-2.386474609E-1,2.377014160E-1,-1.198272705E-1
7.956476974E1,5.393981934E-2,1.472930908E-1,1.703186035E-1
7.961476974E1,1.284790039E-1,-6.527709961E-2,2.369079590E-1
7.966476974E1,1.645050049E-1,-5.307006836E-2,2.588958740E-1
7.971476974E1,5.096588135E-1,1.045227051E-1,5.252380371E-1
7.976476974E1,5.149841309E-2,1.338500977E-1,6.282043457E-2
7.981476974E1,2.207183838E-1,9.395904541E-1,4.299468994E-1
7.986476974E1,-5.440826416E-1,-4.849548340E-1,-1.289825439E-1
7.991476974E1,2.243804932E-1,3.708648682E-1,5.496826172E-1
7.996476974E1,-5.019378662E-1,4.771423340E-2,3.462677002E-1
8.001476974E1,-1.231994629E-1,-3.523864746E-1,3.914642334E-1
8.006476974E1,-2.221527100E-1,2.602996826E-1,3.260955811E-1
8.011476974E1,3.685455322E-1,-2.210540771E-1,1.972045898E-1
8.016476974E1,2.976837158E-1,-8.848571777E-2,1.104583740E-1
8.021476974E1,1.681823730E-1,-5.814666748E-1,-1.631927490E-1
8.026476974E1,1.003723145E-1,-5.081634521E-1,9.030151367E-2
8.031476974E1,-2.142181396E-1,5.261230469E-2,-1.963806152E-2
8.036476974E1,-4.921722412E-1,-7.445678711E-1,-3.262939453E-1
8.041476974E1,-5.172729492E-2,5.388641357E-1,1.489562988E-1
8.046476974E1,-3.113403320E-1,-3.779602051E-2,7.746887207E-2
8.051476974E1,-4.133605957E-2,2.829132080E-1,1.336669922E-1
8.056476974E1,2.462768555E-2,3.274993896E-1,1.599426270E-1
8.061476974E1,3.795318604E-1,-1.605834961E-1,2.607421875E-1
8.066476974E1,2.488098145E-1,1.766052246E-1,2.436370850E-1
8.071476974E1,3.134155273E-2,8.009338379E-2,-8.378601074E-2
8.076476974E1,2.775268555E-1,4.301300049E-1,2.173614502E-1
8.081476974E1,-2.301025391E-1,7.037963867E-1,6.097412109E-2
8.086476974E1,1.449584961E-1,-7.421264648E-1,7.992553711E-2
8.091476974E1,-3.467712402E-1,4.118041992E-1,3.010559082E-1
8.096476974E1,-2.411041260E-1,-5.856323242E-2,2.460784912E-1
8.101476974E1,-1.042633057E-1,-1.178131104E-1,2.738952637E-2
8.106476974E1,-3.950500488E-2,-8.604431152E-2,5.853271484E-2
8.111476974E1,3.349456787E-1,-1.892852783E-1,1.123046875E-1
8.116476974E1,9.426879883E-2,-1.159820557E-1,-7.431030273E-3
8.121476974E1,2.762908936E-1,-1.367645264E-1,-2.584991455E-1
8.126476974E1,5.761718750E-2,3.470458984E-1,-2.126770020E-1
8.131476974E1,-3.150024414E-1,-7.799987793E-1,-4.667968750E-1
8.136476974E1,-4.699707031E-3,3.500976562E-1,-8.805847168E-2
8.141476974E1,-2.960815430E-1,1.375122070E-1,1.373291016E-1
8.146476974E1,-1.818389893E-1,8.131408691E-2,1.129150391E-3
8.151476974E1,-2.820281982E-1,3.329925537E-1,2.393493652E-1
8.156476974E1,4.722595215E-2,-2.998657227E-1,2.973937988E-1
8.161476974E1,2.023925781E-1,8.314514160E-2,4.012298584E-1
8.166476974E1,2.842407227E-1,2.621307373E-1,2.100372314E-1
8.171476974E1,4.797210693E-1,-4.023742676E-2,7.502746582E-2
8.176476974E1,1.498565674E-1,1.278015137E0,2.051544189E-1
8.181476974E1,1.468048096E-1,-6.547698975E-1,1.770477295E-1
8.186476974E1,2.951049805E-2,1.143035889E-1,1.593322754E-1
8.191476974E1,-2.527008057E-1,-2.265472412E-1,-1.625823975E-1
8.196476974E1,-2.411041260E-1,2.199859619E-1,1.300048828E-1
8.201476974E1,2.462768555E-2,8.926391602E-2,6.465148926E-2
8.206476974E1,1.492462158E-1,-1.776885986E-1,7.870483398E-2
8.211476974E1,1.058654785E-1,-3.779602051E-2,3.410339355E-2
8.216476974E1,2.121582031E-1,-2.241058350E-1,-1.351013184E-1
8.221476974E1,8.082580566E-2,-1.850128174E-1,-2.053527832E-1
8.226476974E1,7.165527344E-2,3.012390137E-1,-7.888793945E-2
8.231476974E1,-2.863006592E-1,-7.702178955E-1,-8.803558350E-1
8.236476974E1,-3.101196289E-1,2.053222656E-1,-4.949035645E-1
8.241476974E1,-6.027374268E-1,2.273101807E-1,-2.847595215E-1
8.246476974E1,-4.011535645E-2,-1.062164307E-1,-4.405364990E-1
8.251476974E1,-1.280822754E-1,7.032775879E-2,-1.955718994E-1
8.256476974E1,3.013458252E-1,-1.465301514E-1,-4.957580566E-2
8.261476974E1,1.229705811E-1,3.073425293E-1,7.075500488E-2
8.266476974E1,1.779479980E-1,-8.848571777E-2,4.571533203E-2
8.271476974E1,7.472229004E-2,5.981140137E-1,3.169403076E-1
8.276476974E1,-2.667236328E-2,7.373809814E-1,3.951263428E-1
8.281476974E1,5.088806152E-2,-1.026794434E0,1.654357910E-1
8.286476974E1,4.356384277E-2,-1.544647217E-1,2.686767578E-1
8.291476974E1,-3.235626221E-1,-1.990661621E-1,2.692871094E-1
8.296476974E1,1.358032227E-1,-6.584320068E-1,3.715515137E-2
8.301476974E1,1.755065918E-1,4.466247559E-2,5.670166016E-2
8.306476974E1,1.327514648E-1,-2.448730469E-1,2.564544678E-1
8.311476974E1,2.775268555E-1,-2.931365967E-1,1.843872070E-1
8.316476974E1,-4.054260254E-1,6.971740723E-2,4.632568359E-2
8.321476974E1,-6.088256836E-2,-2.546539307E-1,2.922058105E-2
8.326476974E1,-4.744415283E-1,7.215881348E-2,3.471374512E-2
8.331476974E1,-4.475708008E-1,-1.123199463E-1,-3.458404541E-1
8.336476974E1,1.590118408E-1,5.266418457E-1,1.458892822E-1
8.341476974E1,-4.622344971E-1,-2.729797363E-1,-6.179809570E-2
8.346476974E1,1.180877686E-1,-2.674713135E-1,-3.186035156E-2
8.351476974E1,-2.423095703E-2,5.913848877E-1,-2.880859375E-2
8.356476974E1,3.453369141E-1,-2.191162109E-2,3.321990967E-1
8.361476974E1,3.135681152E-1,2.315979004E-1,1.823425293E-2
8.366476974E1,2.475891113E-1,7.415771484E-3,2.766265869E-1
8.371476974E1,3.514404297E-1,8.320770264E-1,2.723388672E-1
8.376476974E1,-3.327331543E-1,-5.356597900E-1,1.263427734E-1
8.381476974E1,-7.249450684E-2,-4.084777832E-2,-1.912994385E-1
8.386476974E1,-4.377899170E-1,5.345764160E-1,-1.597595215E-2
8.391476974E1,-3.675384521E-1,-4.531860352E-1,4.791259766E-3
8.396476974E1,7.472229004E-2,-5.612182617E-2,-1.292419434E-2
8.401476974E1,1.217498779E-1,1.448364258E-1,6.709289551E-2
8.406476974E1,4.791107178E-1,-2.393798828E-1,6.159973145E-2
8.411476974E1,2.286529541E-1,-2.424316406E-1,-1.497497559E-1
8.416476974E1,1.920013428E-1,-3.859863281E-1,-1.387634277E-1
8.421476974E1,4.844665527E-2,1.430206299E-1,-1.711425781E-1
8.426476974E1,-2.423095703E-2,-4.953308105E-1,-6.118774414E-2
8.431476974E1,1.455841064E-1,-2.937469482E-1,-4.796295166E-1
8.436476974E1,1.492462158E-1,2.877807617E-2,-4.591369629E-2
8.441476974E1,-3.712158203E-1,-2.374267578E-2,-1.387634277E-1
8.446476974E1,1.522979736E-1,5.444335938E-2,-3.739471436E-1
8.451476974E1,1.590118408E-1,1.283569336E-1,-2.453613281E-2
8.456476974E1,3.031768799E-1,1.081848145E-1,-8.041381836E-3
8.461476974E1,2.701873779E-1,2.444152832E-1,1.605529785E-1
8.466476974E1,1.681823730E-1,2.602996826E-1,3.016662598E-1
8.471476974E1,1.956634521E-1,7.825927734E-1,2.808990479E-1
8.476476974E1,-3.144073486E-1,-9.956359863E-1,7.746887207E-2
8.481476974E1,-6.944274902E-2,1.155242920E-1,2.986145020E-1
8.486476974E1,-3.785400391E-1,3.238372803E-1,3.041076660E-1
8.491476974E1,-3.174591064E-1,-5.240478516E-1,1.159667969E-1
8.496476974E1,-4.272460938E-4,1.161346436E-1,2.729492188E-1
8.501476974E1,-2.851867676E-2,5.383300781E-2,1.379547119E-1
8.506476974E1,1.632843018E-1,-1.782989502E-1,1.452789307E-1
8.511476974E1,-3.321075439E-1,6.201171875E-1,-9.417724609E-2
8.516476974E1,3.190612793E-1,-3.536071777E-1,-1.699218750E-1
8.521476974E1,-2.539215088E-1,3.989715576E-1,-6.240844727E-2
8.526476974E1,-2.233886719E-1,-5.399322510E-1,-5.285034180E-1
8.531476974E1,6.555175781E-2,1.961669922E-1,2.100372314E-1
8.536476974E1,-3.144073486E-1,2.926788330E-1,7.563781738E-2
8.541476974E1,-1.385498047E-2,-8.848571777E-2,-6.973266602E-2
8.546476974E1,-7.493591309E-2,3.753662109E-3,-3.796386719E-2
8.551476974E1,2.158203125E-1,-2.809143066E-1,9.335327148E-2
8.556476974E1,1.480255127E-1,6.066741943E-1,1.330718994E-1
8.561476974E1,3.496093750E-1,-1.844024658E-1,2.448577881E-1
8.566476974E1,1.632843018E-1,4.368438721E-1,1.526184082E-1
8.571476974E1,9.852600098E-2,1.206542969E0,4.824829102E-1
8.576476974E1,-3.279113770E-2,-2.650299072E-1,3.370971680E-1
8.581476974E1,1.484680176E-2,-1.355438232E-1,3.621368408E-1
8.586476974E1,-9.143066406E-2,-5.936889648E-1,2.188110352E-2
8.591476974E1,-1.439666748E-1,3.220062256E-1,1.116790771E-1
8.596476974E1,7.775878906E-2,8.192443848E-2,4.205322266E-2
8.601476974E1,2.762908936E-1,-3.475036621E-1,-7.431030273E-3
8.606476974E1,-4.623413086E-2,9.963989258E-2,5.609130859E-2
8.611476974E1,1.871185303E-1,-2.088317871E-1,-9.111022949E-2
8.616476974E1,-3.650970459E-1,1.912689209E-1,-1.204376221E-1
8.621476974E1,3.862609863E-1,-2.252197266E-2,2.515716553E-1
8.626476974E1,-5.581359863E-1,6.604003906E-2,-7.416992188E-1
8.631476974E1,4.094696045E-1,9.780883789E-2,5.059814453E-2
8.636476974E1,-3.907623291E-1,2.041015625E-1,-1.717529297E-1
8.641476974E1,2.677459717E-1,-3.071899414E-1,-2.780456543E-1
8.646476974E1,-7.141113281E-3,1.210327148E-1,-2.212219238E-1
8.651476974E1,1.412963867E-1,-2.015075684E-1,-7.339477539E-2
8.656476974E1,6.982421875E-2,-8.911132812E-2,-1.497497559E-1
8.661476974E1,-1.152496338E-1,-6.588745117E-2,-9.661865234E-2
8.666476974E1,2.084960938E-1,3.788146973E-1,7.441711426E-2
8.671476974E1,5.516052246E-2,1.368423462E0,3.377075195E-1
8.676476974E1,-9.582519531E-3,-2.778625488E-1,3.041076660E-1
8.681476974E1,-4.196166992E-2,-4.049224854E-1,5.487060547E-2
8.686476974E1,-4.524536133E-1,-1.641845703E-2,-5.934143066E-2
8.691476974E1,-3.767395020E-2,8.926391602E-2,-1.937866211E-3
8.696476974E1,2.011718750E-1,-9.643554688E-2,1.141204834E-1
8.701476974E1,4.070281982E-1,-3.823242188E-1,3.044128418E-2
8.706476974E1,1.015930176E-1,-1.874542236E-1,-2.218475342E-1
8.711476974E1,2.157592773E-2,-2.540435791E-1,-1.986236572E-1
8.716476974E1,-2.423248291E-1,5.810546875E-2,-2.401733398E-1
8.721476974E1,-7.847747803E-1,-2.577056885E-1,-3.482971191E-1
8.726476974E1,-1.513061523E-1,-1.641845703E-2,-2.786560059E-1
8.731476974E1,-9.570312500E-2,2.328491211E-2,2.432250977E-2
8.736476974E1,-9.754943848E-2,-4.238739014E-1,-2.933044434E-1
8.741476974E1,1.712341309E-1,1.979980469E-1,-1.564788818E-1
8.746476974E1,2.706909180E-2,2.083740234E-1,-1.069946289E-1
8.751476974E1,4.106903076E-1,-2.302246094E-1,-2.575683594E-2
8.756476974E1,1.785583496E-1,2.059326172E-1,-8.195495605E-2
8.761476974E1,2.396392822E-1,-6.161499023E-2,-4.347229004E-2
8.766476974E1,9.486389160E-2,1.041000366E0,1.758270264E-1
8.771476974E1,-4.170227051E-1,-7.445678711E-1,-2.316131592E-1
8.776476974E1,1.687927246E-1,3.001403809E-2,-1.711425781E-1
8.781476974E1,-3.779296875E-1,2.047119141E-1,6.097412109E-2
8.786476974E1,-2.050628662E-1,-1.666870117E-1,-1.375427246E-1
8.791476974E1,-4.011535645E-2,2.114257812E-1,5.364990234E-2
8.796476974E1,1.351928711E-1,-2.711486816E-1,-1.082153320E-1
8.801476974E1,2.726287842E-1,-3.029022217E-1,1.794891357E-1
8.806476974E1,5.883789062E-2,5.444335938E-2,2.494812012E-2
8.811476974E1,7.350158691E-2,-4.189758301E-1,1.213073730E-2
8.816476974E1,2.634735107E-1,3.128356934E-1,1.489562988E-1
8.821476974E1,-4.958343506E-1,-3.779602051E-2,2.066040039E-2
8.826476974E1,1.162567139E-1,-4.140930176E-1,5.426025391E-2
8.831476974E1,-2.380371094E-1,-1.978454590E-1,8.541870117E-2
8.836476974E1,-2.691955566E-1,-6.527709961E-2,-2.132873535E-1
8.841476974E1,8.631896973E-2,2.328491211E-2,1.788787842E-1
8.846476974E1,-1.885528564E-1,3.794250488E-1,7.136535645E-2
8.851476974E1,3.526611328E-1,-3.786621094E-1,3.255004883E-1
8.856476974E1,1.473999023E-1,1.833343506E-1,3.914642334E-1
8.861476974E1,3.465576172E-1,-2.613677979E-1,5.093688965E-1
8.866476974E1,1.828308105E-1,9.719696045E-1,6.303100586E-1
8.871476974E1,-1.708526611E-1,-7.861022949E-1,2.130889893E-1
8.876476974E1,1.718444824E-1,2.523651123E-1,4.604949951E-1
8.881476974E1,-3.211212158E-1,2.523651123E-1,5.661773682E-1
8.886476974E1,-2.569732666E-1,-2.167816162E-1,5.056915283E-1
8.891476974E1,-8.105468750E-2,2.419738770E-1,5.533447266E-1
8.896476974E1,1.205291748E-1,-1.587524414E-1,3.560333252E-1
8.901476974E1,4.229125977E-1,-2.656555176E-1,4.262847900E-1
8.906476974E1,3.990173340E-2,2.254791260E-1,2.130889893E-1
8.911476974E1,2.640838623E-1,-3.670501709E-1,1.135253906E-1
8.916476974E1,1.260375977E-1,4.747161865E-1,1.538391113E-1
8.921476974E1,-1.531219482E-1,-5.869750977E-1,1.758270264E-1
8.926476974E1,1.144104004E-1,2.462463379E-1,7.441711426E-2
8.931476974E1,2.095031738E-2,1.320190430E-1,4.873809814E-1
8.936476974E1,-3.034973145E-2,-4.483032227E-1,1.917114258E-1
8.941476974E1,-7.615661621E-2,2.731323242E-1,2.033081055E-1
8.946476974E1,-2.129974365E-1,2.315979004E-1,1.061859131E-1
8.951476974E1,2.408599854E-1,-4.110260010E-1,3.016662598E-1
8.956476974E1,-1.109771729E-1,-3.657531738E-2,2.863922119E-1
8.961476974E1,2.060546875E-1,3.103942871E-1,5.625152588E-1
8.966476974E1,4.058074951E-1,1.173553467E-1,5.954895020E-1
8.971476974E1,2.340698242E-2,5.877227783E-1,5.936584473E-1
8.976476974E1,2.524871826E-1,-7.505798340E-2,2.808990479E-1
8.981476974E1,-1.995849609E-2,3.745422363E-1,5.337982178E-1
8.986476974E1,-1.903991699E-1,-5.209960938E-1,3.548126221E-1
8.991476974E1,-1.995849609E-2,3.372650146E-1,6.107635498E-1
8.996476974E1,-1.751251221E-1,1.546173096E-1,5.307464600E-1
9.001476974E1,1.724548340E-1,-6.419525146E-1,4.061279297E-1
9.006476974E1,1.376342773E-1,-4.206848145E-2,3.902435303E-1
9.011476974E1,1.920013428E-1,-2.008056641E-2,2.039337158E-1
9.016476974E1,4.394073486E-1,-1.318664551E-1,2.173614502E-1
9.021476974E1,2.207183838E-1,3.873596191E-1,-7.019042969E-4
9.026476974E1,8.087158203E-4,-4.389953613E-2,2.876129150E-1
9.031476974E1,-3.096008301E-2,-5.045013428E-1,-3.629608154E-1
9.036476974E1,1.419067383E-1,5.932312012E-1,3.896331787E-1
9.041476974E1,-6.333923340E-2,-4.134674072E-1,1.446685791E-1
9.046476974E1,2.995147705E-1,-3.310089111E-1,1.953735352E-1
9.051476974E1,-3.034973145E-2,3.610992432E-1,3.920745850E-1
9.056476974E1,-1.629638672E-2,1.753845215E-1,1.410064697E-1
9.061476974E1,1.296997070E-1,1.705017090E-1,4.219970703E-1
9.066476974E1,2.767944336E-2,5.058746338E-1,4.177398682E-1
9.071476974E1,2.152099609E-1,6.359863281E-2,5.820617676E-1
9.076476974E1,4.583435059E-1,5.590209961E-1,4.366607666E-1
9.081476974E1,-1.170959473E-1,6.457672119E-1,5.447845459E-1
9.086476974E1,-1.024322510E-1,-4.293518066E-1,4.116210938E-1
9.091476974E1,-4.255676270E-2,-1.483612061E-1,3.835144043E-1
9.096476974E1,-1.732940674E-1,6.726379395E-1,6.003875732E-1
9.101476974E1,-9.020996094E-2,-1.404266357E-1,5.692291260E-1
9.106476974E1,-7.066345215E-2,1.546173096E-1,2.790679932E-1
9.111476974E1,-2.508697510E-1,-7.261657715E-2,2.680664062E-1
9.116476974E1,-7.310485840E-2,4.282836914E-1,1.575012207E-1
9.121476974E1,-1.769561768E-1,4.246215820E-1,-6.057739258E-2
9.126476974E1,-2.917938232E-1,3.000183105E-1,-1.919097900E-1
9.131476974E1,1.461791992E-1,3.562164307E-1,-2.768249512E-1
9.136476974E1,-4.562377930E-2,-3.291778564E-1,-5.889739990E-1
9.141476974E1,1.822204590E-1,1.760101318E-1,-3.763885498E-1
9.146476974E1,-1.684112549E-1,-4.756164551E-2,-2.181701660E-1
9.151476974E1,-4.054260254E-1,5.364074707E-1,-2.224426270E-1
9.156476974E1,-1.323547363E-1,4.161071777E-2,1.837615967E-1
9.161476974E1,-2.241516113E-2,-5.612182617E-2,1.257324219E-1
9.166476974E1,-4.684448242E-2,-4.817199707E-2,-5.996704102E-2
9.171476974E1,-3.096008301E-2,1.857757568E-1,-3.063964844E-2
9.176476974E1,-2.582092285E-1,-5.416870117E-3,-2.532958984E-3
9.181476974E1,-1.692199707E-2,-2.540435791E-1,2.960205078E-3
